# n + 208Pb   : (n,n')            Total
# Q-value    = 0.00000E+00
# E-threshold= 2.62723E+00
# # energies = 46
#    E         xs       gamma xs  xs/res.prod.xs
 1.000E+00 0.00000E+00 0.00000E+00 0.00000E+00
 1.200E+00 0.00000E+00 0.00000E+00 0.00000E+00
 1.400E+00 0.00000E+00 0.00000E+00 0.00000E+00
 1.600E+00 0.00000E+00 0.00000E+00 0.00000E+00
 1.800E+00 0.00000E+00 0.00000E+00 0.00000E+00
 2.000E+00 0.00000E+00 0.00000E+00 0.00000E+00
 2.200E+00 0.00000E+00 0.00000E+00 0.00000E+00
 2.400E+00 0.00000E+00 0.00000E+00 0.00000E+00
 2.600E+00 0.00000E+00 0.00000E+00 0.00000E+00
 2.800E+00 3.16456E+02 3.16456E+02 9.98882E-01
 3.000E+00 5.14190E+02 5.14190E+02 9.99191E-01
 3.200E+00 6.63435E+02 6.63435E+02 9.99224E-01
 3.400E+00 8.73812E+02 1.01156E+03 9.99415E-01
 3.600E+00 1.07063E+03 1.41068E+03 9.99454E-01
 3.800E+00 1.25956E+03 1.86469E+03 9.99462E-01
 4.000E+00 1.44263E+03 2.40003E+03 9.99465E-01
 4.200E+00 1.71071E+03 3.24245E+03 9.99548E-01
 4.400E+00 2.00334E+03 4.13553E+03 9.99641E-01
 4.600E+00 2.19575E+03 4.74362E+03 9.99682E-01
 4.800E+00 2.32083E+03 5.17647E+03 9.99695E-01
 5.000E+00 2.40253E+03 5.50531E+03 9.99693E-01
 5.500E+00 2.50134E+03 6.11114E+03 9.99666E-01
 6.000E+00 2.52793E+03 6.58864E+03 9.99619E-01
 6.500E+00 2.53377E+03 7.05702E+03 9.99554E-01
 7.000E+00 2.54335E+03 7.57084E+03 9.99464E-01
 7.500E+00 2.56551E+03 8.14323E+03 9.99351E-01
 8.000E+00 2.48561E+03 8.39065E+03 9.99182E-01
 8.500E+00 2.28975E+03 8.15857E+03 9.98924E-01
 9.000E+00 2.00892E+03 7.47447E+03 9.98536E-01
 9.500E+00 1.69995E+03 6.52800E+03 9.97969E-01
 1.000E+01 1.38394E+03 5.44687E+03 9.97125E-01
 1.100E+01 8.89565E+02 3.54656E+03 9.94410E-01
 1.200E+01 6.04924E+02 2.33707E+03 9.90412E-01
 1.300E+01 4.59680E+02 1.70323E+03 9.86354E-01
 1.400E+01 3.85757E+02 1.37743E+03 9.83657E-01
 1.500E+01 3.45065E+02 1.20811E+03 9.82548E-01
 1.600E+01 3.19537E+02 1.11128E+03 9.82539E-01
 1.700E+01 3.03656E+02 1.05902E+03 9.83259E-01
 1.800E+01 2.87016E+02 9.98660E+02 9.84183E-01
 1.900E+01 2.72837E+02 9.52676E+02 9.85394E-01
 2.000E+01 2.61784E+02 9.14870E+02 9.86984E-01
 2.200E+01 2.39463E+02 8.33900E+02 9.91015E-01
 2.400E+01 2.18802E+02 7.63020E+02 9.94292E-01
 2.600E+01 1.98891E+02 6.91042E+02 9.96085E-01
 2.800E+01 1.85710E+02 6.44758E+02 9.96869E-01
 3.000E+01 1.71459E+02 5.92034E+02 9.97276E-01
