# n + 208Pb   : (n,n')            Total
# Q-value    = 0.00000E+00
# E-threshold= 2.62720E+00
# # energies =    46
#     E          xs       gamma xs  xs/res.prod.xs
 1.00000E+00 0.00000E+00 0.00000E+00 0.00000E+00
 1.20000E+00 0.00000E+00 0.00000E+00 0.00000E+00
 1.40000E+00 0.00000E+00 0.00000E+00 0.00000E+00
 1.60000E+00 0.00000E+00 0.00000E+00 0.00000E+00
 1.80000E+00 0.00000E+00 0.00000E+00 0.00000E+00
 2.00000E+00 0.00000E+00 0.00000E+00 0.00000E+00
 2.20000E+00 0.00000E+00 0.00000E+00 0.00000E+00
 2.40000E+00 0.00000E+00 0.00000E+00 0.00000E+00
 2.60000E+00 0.00000E+00 0.00000E+00 0.00000E+00
 2.80000E+00 3.16539E+02 3.16539E+02 9.99394E-01
 3.00000E+00 5.14305E+02 5.14305E+02 9.99569E-01
 3.20000E+00 6.63587E+02 6.63587E+02 9.99593E-01
 3.40000E+00 8.73999E+02 1.01182E+03 9.99701E-01
 3.60000E+00 1.07086E+03 1.41097E+03 9.99727E-01
 3.80000E+00 1.25983E+03 1.86496E+03 9.99735E-01
 4.00000E+00 1.44288E+03 2.40898E+03 9.99742E-01
 4.20000E+00 1.69187E+03 3.18465E+03 9.99778E-01
 4.40000E+00 1.95879E+03 4.01260E+03 9.99818E-01
 4.60000E+00 2.14132E+03 4.64277E+03 9.99838E-01
 4.80000E+00 2.26192E+03 5.09630E+03 9.99840E-01
 5.00000E+00 2.35121E+03 5.47544E+03 9.99841E-01
 5.50000E+00 2.47723E+03 6.18083E+03 9.99839E-01
 6.00000E+00 2.51872E+03 6.70028E+03 9.99830E-01
 6.50000E+00 2.53138E+03 7.18605E+03 9.99817E-01
 7.00000E+00 2.54395E+03 7.70198E+03 9.99799E-01
 7.50000E+00 2.56539E+03 8.26333E+03 9.99777E-01
 8.00000E+00 2.46417E+03 8.42962E+03 9.99741E-01
 8.50000E+00 2.21609E+03 8.00297E+03 9.99679E-01
 9.00000E+00 1.89501E+03 7.14155E+03 9.99586E-01
 9.50000E+00 1.54055E+03 5.99622E+03 9.99444E-01
 1.00000E+01 1.21272E+03 4.81752E+03 9.99233E-01
 1.10000E+01 7.29031E+02 2.91651E+03 9.98475E-01
 1.20000E+01 4.70239E+02 1.81613E+03 9.97073E-01
 1.30000E+01 3.47887E+02 1.28033E+03 9.95319E-01
 1.40000E+01 2.92742E+02 1.03949E+03 9.93867E-01
 1.50000E+01 2.63417E+02 9.18702E+02 9.92676E-01
 1.60000E+01 2.44293E+02 8.48322E+02 9.91717E-01
 1.70000E+01 2.33094E+02 8.10881E+02 9.90972E-01
 1.80000E+01 2.19421E+02 7.62751E+02 9.90387E-01
 1.90000E+01 2.07935E+02 7.22513E+02 9.90112E-01
 2.00000E+01 1.99490E+02 6.95641E+02 9.90313E-01
 2.20000E+01 1.82250E+02 6.37625E+02 9.91910E-01
 2.40000E+01 1.67748E+02 5.88596E+02 9.93928E-01
 2.60000E+01 1.50708E+02 5.25878E+02 9.95199E-01
 2.80000E+01 1.38909E+02 4.79196E+02 9.95915E-01
 3.00000E+01 1.28619E+02 4.41662E+02 9.96286E-01
