# n + 208Pb   : (n,n')            Total
# Q-value    = 0.00000E+00
# E-threshold= 2.62720E+00
# # energies =    46
#     E          xs       gamma xs  xs/res.prod.xs
 1.00000E+00 0.00000E+00 0.00000E+00 0.00000E+00
 1.20000E+00 0.00000E+00 0.00000E+00 0.00000E+00
 1.40000E+00 0.00000E+00 0.00000E+00 0.00000E+00
 1.60000E+00 0.00000E+00 0.00000E+00 0.00000E+00
 1.80000E+00 0.00000E+00 0.00000E+00 0.00000E+00
 2.00000E+00 0.00000E+00 0.00000E+00 0.00000E+00
 2.20000E+00 0.00000E+00 0.00000E+00 0.00000E+00
 2.40000E+00 0.00000E+00 0.00000E+00 0.00000E+00
 2.60000E+00 0.00000E+00 0.00000E+00 0.00000E+00
 2.80000E+00 3.16539E+02 3.16539E+02 9.99394E-01
 3.00000E+00 5.14305E+02 5.14305E+02 9.99569E-01
 3.20000E+00 6.63587E+02 6.63587E+02 9.99593E-01
 3.40000E+00 8.73999E+02 1.01182E+03 9.99702E-01
 3.60000E+00 1.07086E+03 1.41097E+03 9.99727E-01
 3.80000E+00 1.25983E+03 1.86496E+03 9.99735E-01
 4.00000E+00 1.44288E+03 2.40898E+03 9.99742E-01
 4.20000E+00 1.69187E+03 3.18465E+03 9.99778E-01
 4.40000E+00 1.95879E+03 4.01260E+03 9.99818E-01
 4.60000E+00 2.14132E+03 4.64277E+03 9.99838E-01
 4.80000E+00 2.26192E+03 5.09630E+03 9.99840E-01
 5.00000E+00 2.35121E+03 5.47544E+03 9.99841E-01
 5.50000E+00 2.47723E+03 6.18083E+03 9.99839E-01
 6.00000E+00 2.51872E+03 6.70028E+03 9.99830E-01
 6.50000E+00 2.53138E+03 7.18605E+03 9.99817E-01
 7.00000E+00 2.54395E+03 7.70198E+03 9.99799E-01
 7.50000E+00 2.56539E+03 8.26333E+03 9.99777E-01
 8.00000E+00 2.46416E+03 8.42961E+03 9.99741E-01
 8.50000E+00 2.21609E+03 8.00296E+03 9.99680E-01
 9.00000E+00 1.89500E+03 7.14153E+03 9.99586E-01
 9.50000E+00 1.54054E+03 5.99618E+03 9.99444E-01
 1.00000E+01 1.21271E+03 4.81748E+03 9.99233E-01
 1.10000E+01 7.29025E+02 2.91648E+03 9.98475E-01
 1.20000E+01 4.70236E+02 1.81611E+03 9.97073E-01
 1.30000E+01 3.47886E+02 1.28033E+03 9.95319E-01
 1.40000E+01 2.92742E+02 1.03949E+03 9.93867E-01
 1.50000E+01 2.63419E+02 9.18708E+02 9.92676E-01
 1.60000E+01 2.44298E+02 8.48341E+02 9.91717E-01
 1.70000E+01 2.33104E+02 8.10922E+02 9.90972E-01
 1.80000E+01 2.19437E+02 7.62820E+02 9.90387E-01
 1.90000E+01 2.07958E+02 7.22618E+02 9.90112E-01
 2.00000E+01 1.99523E+02 6.95789E+02 9.90313E-01
 2.20000E+01 1.82303E+02 6.37871E+02 9.91911E-01
 2.40000E+01 1.67822E+02 5.88946E+02 9.93929E-01
 2.60000E+01 1.50798E+02 5.26307E+02 9.95200E-01
 2.80000E+01 1.39012E+02 4.79689E+02 9.95917E-01
 3.00000E+01 1.28732E+02 4.42209E+02 9.96288E-01
