# n + Pb208: Gamma-ray intensity - 207Pb: Level  4 --> Level  2 - gamma energy    1.442223
# E-initial  =   2.339921 E-final=   0.897698
# E-threshold= 9.75488E+00
# # energies =    67
#    E           xs
 1.00000E-11 0.00000E+00
 2.53000E-08 0.00000E+00
 2.00000E-07 0.00000E+00
 1.00000E-06 0.00000E+00
 1.00000E-03 0.00000E+00
 2.00000E-03 0.00000E+00
 5.00000E-03 0.00000E+00
 1.00000E-02 0.00000E+00
 2.00000E-02 0.00000E+00
 5.00000E-02 0.00000E+00
 1.00000E-01 0.00000E+00
 2.00000E-01 0.00000E+00
 3.00000E-01 0.00000E+00
 4.00000E-01 0.00000E+00
 5.00000E-01 0.00000E+00
 7.50000E-01 0.00000E+00
 1.00000E+00 0.00000E+00
 1.20000E+00 0.00000E+00
 1.40000E+00 0.00000E+00
 1.60000E+00 0.00000E+00
 1.80000E+00 0.00000E+00
 2.00000E+00 0.00000E+00
 2.20000E+00 0.00000E+00
 2.40000E+00 0.00000E+00
 2.60000E+00 0.00000E+00
 2.80000E+00 0.00000E+00
 3.00000E+00 0.00000E+00
 3.20000E+00 0.00000E+00
 3.40000E+00 0.00000E+00
 3.60000E+00 0.00000E+00
 3.80000E+00 0.00000E+00
 4.00000E+00 0.00000E+00
 4.20000E+00 0.00000E+00
 4.40000E+00 0.00000E+00
 4.60000E+00 0.00000E+00
 4.80000E+00 0.00000E+00
 5.00000E+00 0.00000E+00
 5.50000E+00 0.00000E+00
 6.00000E+00 0.00000E+00
 6.50000E+00 0.00000E+00
 7.00000E+00 0.00000E+00
 7.50000E+00 0.00000E+00
 8.00000E+00 0.00000E+00
 8.50000E+00 0.00000E+00
 9.00000E+00 0.00000E+00
 9.50000E+00 0.00000E+00
 1.00000E+01 3.06015E-02
 1.10000E+01 8.41696E-01
 1.20000E+01 2.05218E+00
 1.30000E+01 2.95087E+00
 1.40000E+01 3.31911E+00
 1.50000E+01 3.37287E+00
 1.60000E+01 3.21961E+00
 1.70000E+01 2.81498E+00
 1.80000E+01 2.25644E+00
 1.90000E+01 1.70619E+00
 2.00000E+01 1.27336E+00
 2.10000E+01 9.72509E-01
 2.20000E+01 7.85403E-01
 2.30000E+01 6.67679E-01
 2.40000E+01 5.95183E-01
 2.50000E+01 5.47018E-01
 2.60000E+01 5.11135E-01
 2.70000E+01 4.82862E-01
 2.80000E+01 4.60248E-01
 2.90000E+01 4.42427E-01
 3.00000E+01 4.23145E-01
