# n + Pb208: Gamma-ray intensity - 209Pb: Level  7 --> Level  1 - gamma energy    1.645110
# E-initial  =   2.424000 E-final=   0.778890
# E-threshold= 0.00000E+00
# # energies =    67
#    E           xs
 1.00000E-11 0.00000E+00
 2.53000E-08 0.00000E+00
 2.00000E-07 0.00000E+00
 1.00000E-06 7.24133E-08
 1.00000E-03 6.53995E-08
 2.00000E-03 8.16565E-08
 5.00000E-03 1.44560E-07
 1.00000E-02 1.58259E-07
 2.00000E-02 1.22495E-07
 5.00000E-02 7.83169E-08
 1.00000E-01 6.77384E-08
 2.00000E-01 6.86786E-08
 3.00000E-01 7.48158E-08
 4.00000E-01 8.07198E-08
 5.00000E-01 8.65633E-08
 7.50000E-01 1.04725E-07
 1.00000E+00 1.29373E-07
 1.20000E+00 1.54498E-07
 1.40000E+00 1.84427E-07
 1.60000E+00 2.20123E-07
 1.80000E+00 2.63016E-07
 2.00000E+00 3.13697E-07
 2.20000E+00 3.73482E-07
 2.40000E+00 4.44924E-07
 2.60000E+00 5.28464E-07
 2.80000E+00 3.53281E-07
 3.00000E+00 3.25740E-07
 3.20000E+00 3.31290E-07
 3.40000E+00 3.02048E-07
 3.60000E+00 2.87594E-07
 3.80000E+00 2.75874E-07
 4.00000E+00 2.66901E-07
 4.20000E+00 2.32002E-07
 4.40000E+00 2.00303E-07
 4.60000E+00 1.76117E-07
 4.80000E+00 1.56210E-07
 5.00000E+00 1.38250E-07
 5.50000E+00 1.07009E-07
 6.00000E+00 8.35137E-08
 6.50000E+00 7.00626E-08
 7.00000E+00 6.12897E-08
 7.50000E+00 5.78310E-08
 8.00000E+00 5.79698E-08
 8.50000E+00 6.04679E-08
 9.00000E+00 6.74781E-08
 9.50000E+00 7.78574E-08
 1.00000E+01 9.23553E-08
 1.10000E+01 1.25264E-07
 1.20000E+01 1.50071E-07
 1.30000E+01 1.49061E-07
 1.40000E+01 1.30180E-07
 1.50000E+01 1.08968E-07
 1.60000E+01 8.98077E-08
 1.70000E+01 7.74346E-08
 1.80000E+01 6.36601E-08
 1.90000E+01 5.64888E-08
 2.00000E+01 5.01033E-08
 2.10000E+01 4.40979E-08
 2.20000E+01 3.93253E-08
 2.30000E+01 3.56487E-08
 2.40000E+01 3.14854E-08
 2.50000E+01 2.85023E-08
 2.60000E+01 2.62818E-08
 2.70000E+01 2.43916E-08
 2.80000E+01 2.21493E-08
 2.90000E+01 2.08387E-08
 3.00000E+01 1.97623E-08
