# n + Pb208: Gamma-ray intensity - 209Pb: Level  1 --> Level  0 - gamma energy    0.778890
# E-initial  =   0.778890 E-final=   0.000000
# E-threshold= 0.00000E+00
# # energies =    67
#    E           xs
 1.00000E-11 0.00000E+00
 2.53000E-08 0.00000E+00
 2.00000E-07 0.00000E+00
 1.00000E-06 4.21140E-04
 1.00000E-03 2.27887E-04
 2.00000E-03 3.37784E-04
 5.00000E-03 6.58202E-04
 1.00000E-02 7.28592E-04
 2.00000E-02 5.60987E-04
 5.00000E-02 5.33667E-04
 1.00000E-01 1.40156E-03
 2.00000E-01 5.28195E-03
 3.00000E-01 1.16798E-02
 4.00000E-01 1.93302E-02
 5.00000E-01 3.04423E-02
 7.50000E-01 7.15567E-02
 1.00000E+00 1.20387E-01
 1.20000E+00 1.60401E-01
 1.40000E+00 2.05455E-01
 1.60000E+00 2.56726E-01
 1.80000E+00 3.17011E-01
 2.00000E+00 3.89860E-01
 2.20000E+00 4.78328E-01
 2.40000E+00 5.84314E-01
 2.60000E+00 7.15534E-01
 2.80000E+00 7.01600E-01
 3.00000E+00 6.83813E-01
 3.20000E+00 7.03871E-01
 3.40000E+00 4.11146E-01
 3.60000E+00 3.65600E-01
 3.80000E+00 3.23267E-01
 4.00000E+00 2.82028E-01
 4.20000E+00 2.36834E-01
 4.40000E+00 2.22312E-01
 4.60000E+00 2.08354E-01
 4.80000E+00 1.98579E-01
 5.00000E+00 1.93361E-01
 5.50000E+00 1.80066E-01
 6.00000E+00 1.70478E-01
 6.50000E+00 1.68954E-01
 7.00000E+00 1.77701E-01
 7.50000E+00 1.94738E-01
 8.00000E+00 2.19429E-01
 8.50000E+00 2.49331E-01
 9.00000E+00 2.81617E-01
 9.50000E+00 3.11524E-01
 1.00000E+01 3.27889E-01
 1.10000E+01 3.61851E-01
 1.20000E+01 3.62452E-01
 1.30000E+01 3.51650E-01
 1.40000E+01 3.33256E-01
 1.50000E+01 3.03271E-01
 1.60000E+01 2.62546E-01
 1.70000E+01 2.21499E-01
 1.80000E+01 1.83187E-01
 1.90000E+01 1.52962E-01
 2.00000E+01 1.29323E-01
 2.10000E+01 1.12707E-01
 2.20000E+01 1.00075E-01
 2.30000E+01 8.91862E-02
 2.40000E+01 8.07352E-02
 2.50000E+01 7.43098E-02
 2.60000E+01 6.84064E-02
 2.70000E+01 6.37816E-02
 2.80000E+01 6.00767E-02
 2.90000E+01 5.70803E-02
 3.00000E+01 5.40777E-02
