# n + Pb208: Gamma-ray intensity - 209Pb: Level  8 --> Level  0 - gamma energy    2.461000
# E-initial  =   2.461000 E-final=   0.000000
# E-threshold= 0.00000E+00
# # energies =    67
#    E           xs
 1.00000E-11 0.00000E+00
 2.53000E-08 0.00000E+00
 2.00000E-07 0.00000E+00
 1.00000E-06 1.87221E+00
 1.00000E-03 1.89196E-01
 2.00000E-03 1.24201E-01
 5.00000E-03 8.52744E-02
 1.00000E-02 6.47207E-02
 2.00000E-02 4.27296E-02
 5.00000E-02 2.31011E-02
 1.00000E-01 1.65538E-02
 2.00000E-01 1.36360E-02
 3.00000E-01 1.28482E-02
 4.00000E-01 1.26189E-02
 5.00000E-01 1.27342E-02
 7.50000E-01 1.40562E-02
 1.00000E+00 1.65243E-02
 1.20000E+00 1.92845E-02
 1.40000E+00 2.27435E-02
 1.60000E+00 2.69198E-02
 1.80000E+00 3.20003E-02
 2.00000E+00 3.80639E-02
 2.20000E+00 4.52414E-02
 2.40000E+00 5.38795E-02
 2.60000E+00 6.40653E-02
 2.80000E+00 4.66101E-02
 3.00000E+00 4.42489E-02
 3.20000E+00 4.55059E-02
 3.40000E+00 4.62448E-02
 3.60000E+00 4.68534E-02
 3.80000E+00 4.68507E-02
 4.00000E+00 4.66939E-02
 4.20000E+00 4.11437E-02
 4.40000E+00 3.44461E-02
 4.60000E+00 2.93275E-02
 4.80000E+00 2.52733E-02
 5.00000E+00 2.13808E-02
 5.50000E+00 1.54846E-02
 6.00000E+00 1.13257E-02
 6.50000E+00 9.14988E-03
 7.00000E+00 7.48149E-03
 7.50000E+00 6.72963E-03
 8.00000E+00 6.37947E-03
 8.50000E+00 6.10561E-03
 9.00000E+00 6.44970E-03
 9.50000E+00 7.10339E-03
 1.00000E+01 8.14578E-03
 1.10000E+01 1.07038E-02
 1.20000E+01 1.34863E-02
 1.30000E+01 1.39592E-02
 1.40000E+01 1.19814E-02
 1.50000E+01 1.04260E-02
 1.60000E+01 8.87443E-03
 1.70000E+01 8.04712E-03
 1.80000E+01 6.44460E-03
 1.90000E+01 5.85682E-03
 2.00000E+01 5.26775E-03
 2.10000E+01 4.64019E-03
 2.20000E+01 4.14006E-03
 2.30000E+01 3.75856E-03
 2.40000E+01 3.27237E-03
 2.50000E+01 2.94229E-03
 2.60000E+01 2.70285E-03
 2.70000E+01 2.50669E-03
 2.80000E+01 2.08667E-03
 2.90000E+01 1.94225E-03
 3.00000E+01 1.83110E-03
