# n + Pb208: Gamma-ray intensity - 208Pb: Level 11 --> Level  0 - gamma energy    4.085520
# E-initial  =   4.085520 E-final=   0.000000
# E-threshold= 4.10533E+00
# # energies =    67
#    E           xs
 1.00000E-11 0.00000E+00
 2.53000E-08 0.00000E+00
 2.00000E-07 0.00000E+00
 1.00000E-06 0.00000E+00
 1.00000E-03 0.00000E+00
 2.00000E-03 0.00000E+00
 5.00000E-03 0.00000E+00
 1.00000E-02 0.00000E+00
 2.00000E-02 0.00000E+00
 5.00000E-02 0.00000E+00
 1.00000E-01 0.00000E+00
 2.00000E-01 0.00000E+00
 3.00000E-01 0.00000E+00
 4.00000E-01 0.00000E+00
 5.00000E-01 0.00000E+00
 7.50000E-01 0.00000E+00
 1.00000E+00 0.00000E+00
 1.20000E+00 0.00000E+00
 1.40000E+00 0.00000E+00
 1.60000E+00 0.00000E+00
 1.80000E+00 0.00000E+00
 2.00000E+00 0.00000E+00
 2.20000E+00 0.00000E+00
 2.40000E+00 0.00000E+00
 2.60000E+00 0.00000E+00
 2.80000E+00 0.00000E+00
 3.00000E+00 0.00000E+00
 3.20000E+00 0.00000E+00
 3.40000E+00 0.00000E+00
 3.60000E+00 0.00000E+00
 3.80000E+00 0.00000E+00
 4.00000E+00 0.00000E+00
 4.20000E+00 3.97563E+01
 4.40000E+00 8.91685E+01
 4.60000E+00 1.07218E+02
 4.80000E+00 1.08826E+02
 5.00000E+00 1.04578E+02
 5.50000E+00 9.33452E+01
 6.00000E+00 8.39684E+01
 6.50000E+00 7.24736E+01
 7.00000E+00 6.30064E+01
 7.50000E+00 5.71610E+01
 8.00000E+00 4.85190E+01
 8.50000E+00 3.86026E+01
 9.00000E+00 2.94979E+01
 9.50000E+00 2.19069E+01
 1.00000E+01 1.60788E+01
 1.10000E+01 9.07563E+00
 1.20000E+01 5.87772E+00
 1.30000E+01 4.43712E+00
 1.40000E+01 3.80209E+00
 1.50000E+01 3.36132E+00
 1.60000E+01 3.08132E+00
 1.70000E+01 2.98526E+00
 1.80000E+01 2.80056E+00
 1.90000E+01 2.62181E+00
 2.00000E+01 2.59174E+00
 2.10000E+01 2.42294E+00
 2.20000E+01 2.40974E+00
 2.30000E+01 2.27106E+00
 2.40000E+01 2.19990E+00
 2.50000E+01 2.16375E+00
 2.60000E+01 2.03170E+00
 2.70000E+01 1.94129E+00
 2.80000E+01 1.91124E+00
 2.90000E+01 1.87790E+00
 3.00000E+01 1.77543E+00
