# n + Pb208: Gamma-ray intensity - 207Pb: Level 10 --> Level  1 - gamma energy    2.339302
# E-initial  =   2.909000 E-final=   0.569698
# E-threshold= 1.03267E+01
# # energies =    67
#    E           xs
 1.00000E-11 0.00000E+00
 2.53000E-08 0.00000E+00
 2.00000E-07 0.00000E+00
 1.00000E-06 0.00000E+00
 1.00000E-03 0.00000E+00
 2.00000E-03 0.00000E+00
 5.00000E-03 0.00000E+00
 1.00000E-02 0.00000E+00
 2.00000E-02 0.00000E+00
 5.00000E-02 0.00000E+00
 1.00000E-01 0.00000E+00
 2.00000E-01 0.00000E+00
 3.00000E-01 0.00000E+00
 4.00000E-01 0.00000E+00
 5.00000E-01 0.00000E+00
 7.50000E-01 0.00000E+00
 1.00000E+00 0.00000E+00
 1.20000E+00 0.00000E+00
 1.40000E+00 0.00000E+00
 1.60000E+00 0.00000E+00
 1.80000E+00 0.00000E+00
 2.00000E+00 0.00000E+00
 2.20000E+00 0.00000E+00
 2.40000E+00 0.00000E+00
 2.60000E+00 0.00000E+00
 2.80000E+00 0.00000E+00
 3.00000E+00 0.00000E+00
 3.20000E+00 0.00000E+00
 3.40000E+00 0.00000E+00
 3.60000E+00 0.00000E+00
 3.80000E+00 0.00000E+00
 4.00000E+00 0.00000E+00
 4.20000E+00 0.00000E+00
 4.40000E+00 0.00000E+00
 4.60000E+00 0.00000E+00
 4.80000E+00 0.00000E+00
 5.00000E+00 0.00000E+00
 5.50000E+00 0.00000E+00
 6.00000E+00 0.00000E+00
 6.50000E+00 0.00000E+00
 7.00000E+00 0.00000E+00
 7.50000E+00 0.00000E+00
 8.00000E+00 0.00000E+00
 8.50000E+00 0.00000E+00
 9.00000E+00 0.00000E+00
 9.50000E+00 0.00000E+00
 1.00000E+01 0.00000E+00
 1.10000E+01 8.44991E-01
 1.20000E+01 4.30128E+00
 1.30000E+01 7.30338E+00
 1.40000E+01 8.39160E+00
 1.50000E+01 8.33634E+00
 1.60000E+01 8.03388E+00
 1.70000E+01 7.84206E+00
 1.80000E+01 7.57776E+00
 1.90000E+01 6.91209E+00
 2.00000E+01 5.87913E+00
 2.10000E+01 4.82954E+00
 2.20000E+01 4.02286E+00
 2.30000E+01 3.47526E+00
 2.40000E+01 3.14095E+00
 2.50000E+01 2.92899E+00
 2.60000E+01 2.79391E+00
 2.70000E+01 2.70667E+00
 2.80000E+01 2.64075E+00
 2.90000E+01 2.60998E+00
 3.00000E+01 2.54822E+00
