# n + Pb208: Gamma-ray intensity - 209Pb: Level  5 --> Level  0 - gamma energy    2.149430
# E-initial  =   2.149430 E-final=   0.000000
# E-threshold= 0.00000E+00
# # energies =    67
#    E           xs
 1.00000E-11 0.00000E+00
 2.53000E-08 0.00000E+00
 2.00000E-07 0.00000E+00
 1.00000E-06 3.73851E-03
 1.00000E-03 1.01658E-05
 2.00000E-03 5.83346E-06
 5.00000E-03 3.01479E-06
 1.00000E-02 1.87421E-06
 2.00000E-02 1.10294E-06
 5.00000E-02 5.23758E-07
 1.00000E-01 3.11174E-07
 2.00000E-01 2.01393E-07
 3.00000E-01 1.67295E-07
 4.00000E-01 1.54141E-07
 5.00000E-01 1.50271E-07
 7.50000E-01 1.59657E-07
 1.00000E+00 1.84861E-07
 1.20000E+00 2.13824E-07
 1.40000E+00 2.51439E-07
 1.60000E+00 2.96287E-07
 1.80000E+00 3.50932E-07
 2.00000E+00 4.16722E-07
 2.20000E+00 4.94591E-07
 2.40000E+00 5.88034E-07
 2.60000E+00 7.01426E-07
 2.80000E+00 6.51045E-07
 3.00000E+00 6.65763E-07
 3.20000E+00 7.06927E-07
 3.40000E+00 7.41889E-07
 3.60000E+00 7.83536E-07
 3.80000E+00 8.03585E-07
 4.00000E+00 8.22826E-07
 4.20000E+00 7.46825E-07
 4.40000E+00 6.22506E-07
 4.60000E+00 5.24310E-07
 4.80000E+00 4.49926E-07
 5.00000E+00 3.75709E-07
 5.50000E+00 2.75847E-07
 6.00000E+00 2.06736E-07
 6.50000E+00 1.77304E-07
 7.00000E+00 1.54444E-07
 7.50000E+00 1.53390E-07
 8.00000E+00 1.61759E-07
 8.50000E+00 1.73310E-07
 9.00000E+00 2.04185E-07
 9.50000E+00 2.44193E-07
 1.00000E+01 2.91687E-07
 1.10000E+01 4.01806E-07
 1.20000E+01 4.71910E-07
 1.30000E+01 4.41042E-07
 1.40000E+01 3.67313E-07
 1.50000E+01 3.08343E-07
 1.60000E+01 2.56619E-07
 1.70000E+01 2.24705E-07
 1.80000E+01 1.79001E-07
 1.90000E+01 1.64804E-07
 2.00000E+01 1.47239E-07
 2.10000E+01 1.30424E-07
 2.20000E+01 1.16992E-07
 2.30000E+01 1.06809E-07
 2.40000E+01 9.55929E-08
 2.50000E+01 8.73419E-08
 2.60000E+01 8.11218E-08
 2.70000E+01 7.40753E-08
 2.80000E+01 6.37434E-08
 2.90000E+01 6.00574E-08
 3.00000E+01 5.73869E-08
