# n + Pb208: Gamma-ray intensity - 208Pb: Level  7 --> Level  3 - gamma energy    0.486084
# E-initial  =   3.961162 E-final=   3.475078
# E-threshold= 3.98037E+00
# # energies =    67
#    E           xs
 1.00000E-11 0.00000E+00
 2.53000E-08 0.00000E+00
 2.00000E-07 0.00000E+00
 1.00000E-06 0.00000E+00
 1.00000E-03 0.00000E+00
 2.00000E-03 0.00000E+00
 5.00000E-03 0.00000E+00
 1.00000E-02 0.00000E+00
 2.00000E-02 0.00000E+00
 5.00000E-02 0.00000E+00
 1.00000E-01 0.00000E+00
 2.00000E-01 0.00000E+00
 3.00000E-01 0.00000E+00
 4.00000E-01 0.00000E+00
 5.00000E-01 0.00000E+00
 7.50000E-01 0.00000E+00
 1.00000E+00 0.00000E+00
 1.20000E+00 0.00000E+00
 1.40000E+00 0.00000E+00
 1.60000E+00 0.00000E+00
 1.80000E+00 0.00000E+00
 2.00000E+00 0.00000E+00
 2.20000E+00 0.00000E+00
 2.40000E+00 0.00000E+00
 2.60000E+00 0.00000E+00
 2.80000E+00 0.00000E+00
 3.00000E+00 0.00000E+00
 3.20000E+00 0.00000E+00
 3.40000E+00 0.00000E+00
 3.60000E+00 0.00000E+00
 3.80000E+00 0.00000E+00
 4.00000E+00 2.56951E-01
 4.20000E+00 8.88209E-01
 4.40000E+00 1.21604E+00
 4.60000E+00 1.39151E+00
 4.80000E+00 1.45738E+00
 5.00000E+00 1.46907E+00
 5.50000E+00 1.43353E+00
 6.00000E+00 1.38807E+00
 6.50000E+00 1.35484E+00
 7.00000E+00 1.35027E+00
 7.50000E+00 1.37221E+00
 8.00000E+00 1.37674E+00
 8.50000E+00 1.30106E+00
 9.00000E+00 1.13186E+00
 9.50000E+00 9.22608E-01
 1.00000E+01 7.18244E-01
 1.10000E+01 4.10911E-01
 1.20000E+01 2.51960E-01
 1.30000E+01 1.80970E-01
 1.40000E+01 1.47235E-01
 1.50000E+01 1.30474E-01
 1.60000E+01 1.19355E-01
 1.70000E+01 1.13093E-01
 1.80000E+01 1.06498E-01
 1.90000E+01 1.00782E-01
 2.00000E+01 9.56317E-02
 2.10000E+01 9.12662E-02
 2.20000E+01 8.72111E-02
 2.30000E+01 8.37192E-02
 2.40000E+01 7.90092E-02
 2.50000E+01 7.55659E-02
 2.60000E+01 7.17357E-02
 2.70000E+01 6.84567E-02
 2.80000E+01 6.61504E-02
 2.90000E+01 6.33499E-02
 3.00000E+01 6.02376E-02
