# n + Pb208: Gamma-ray intensity - 208Pb: Level  4 --> Level  1 - gamma energy    1.093929
# E-initial  =   3.708451 E-final=   2.614522
# E-threshold= 3.72644E+00
# # energies =    67
#    E           xs
 1.00000E-11 0.00000E+00
 2.53000E-08 0.00000E+00
 2.00000E-07 0.00000E+00
 1.00000E-06 0.00000E+00
 1.00000E-03 0.00000E+00
 2.00000E-03 0.00000E+00
 5.00000E-03 0.00000E+00
 1.00000E-02 0.00000E+00
 2.00000E-02 0.00000E+00
 5.00000E-02 0.00000E+00
 1.00000E-01 0.00000E+00
 2.00000E-01 0.00000E+00
 3.00000E-01 0.00000E+00
 4.00000E-01 0.00000E+00
 5.00000E-01 0.00000E+00
 7.50000E-01 0.00000E+00
 1.00000E+00 0.00000E+00
 1.20000E+00 0.00000E+00
 1.40000E+00 0.00000E+00
 1.60000E+00 0.00000E+00
 1.80000E+00 0.00000E+00
 2.00000E+00 0.00000E+00
 2.20000E+00 0.00000E+00
 2.40000E+00 0.00000E+00
 2.60000E+00 0.00000E+00
 2.80000E+00 0.00000E+00
 3.00000E+00 0.00000E+00
 3.20000E+00 0.00000E+00
 3.40000E+00 0.00000E+00
 3.60000E+00 0.00000E+00
 3.80000E+00 7.07061E-01
 4.00000E+00 1.87811E+00
 4.20000E+00 2.91976E+00
 4.40000E+00 3.43378E+00
 4.60000E+00 3.72516E+00
 4.80000E+00 3.88023E+00
 5.00000E+00 3.98021E+00
 5.50000E+00 4.16971E+00
 6.00000E+00 4.32936E+00
 6.50000E+00 4.52807E+00
 7.00000E+00 4.81089E+00
 7.50000E+00 5.16220E+00
 8.00000E+00 5.44552E+00
 8.50000E+00 5.46748E+00
 9.00000E+00 5.11541E+00
 9.50000E+00 4.45782E+00
 1.00000E+01 3.67491E+00
 1.10000E+01 2.27106E+00
 1.20000E+01 1.39977E+00
 1.30000E+01 9.88031E-01
 1.40000E+01 7.85476E-01
 1.50000E+01 6.90853E-01
 1.60000E+01 6.32098E-01
 1.70000E+01 6.02793E-01
 1.80000E+01 5.68260E-01
 1.90000E+01 5.37737E-01
 2.00000E+01 5.09180E-01
 2.10000E+01 4.83528E-01
 2.20000E+01 4.61609E-01
 2.30000E+01 4.44327E-01
 2.40000E+01 4.15914E-01
 2.50000E+01 3.96906E-01
 2.60000E+01 3.72350E-01
 2.70000E+01 3.53665E-01
 2.80000E+01 3.42155E-01
 2.90000E+01 3.20204E-01
 3.00000E+01 3.04629E-01
