# n + Pb208: Gamma-ray intensity - 207Pb: Level  9 --> Level  3 - gamma energy    1.268644
# E-initial  =   2.902000 E-final=   1.633356
# E-threshold= 1.03197E+01
# # energies =    67
#    E           xs
 1.00000E-11 0.00000E+00
 2.53000E-08 0.00000E+00
 2.00000E-07 0.00000E+00
 1.00000E-06 0.00000E+00
 1.00000E-03 0.00000E+00
 2.00000E-03 0.00000E+00
 5.00000E-03 0.00000E+00
 1.00000E-02 0.00000E+00
 2.00000E-02 0.00000E+00
 5.00000E-02 0.00000E+00
 1.00000E-01 0.00000E+00
 2.00000E-01 0.00000E+00
 3.00000E-01 0.00000E+00
 4.00000E-01 0.00000E+00
 5.00000E-01 0.00000E+00
 7.50000E-01 0.00000E+00
 1.00000E+00 0.00000E+00
 1.20000E+00 0.00000E+00
 1.40000E+00 0.00000E+00
 1.60000E+00 0.00000E+00
 1.80000E+00 0.00000E+00
 2.00000E+00 0.00000E+00
 2.20000E+00 0.00000E+00
 2.40000E+00 0.00000E+00
 2.60000E+00 0.00000E+00
 2.80000E+00 0.00000E+00
 3.00000E+00 0.00000E+00
 3.20000E+00 0.00000E+00
 3.40000E+00 0.00000E+00
 3.60000E+00 0.00000E+00
 3.80000E+00 0.00000E+00
 4.00000E+00 0.00000E+00
 4.20000E+00 0.00000E+00
 4.40000E+00 0.00000E+00
 4.60000E+00 0.00000E+00
 4.80000E+00 0.00000E+00
 5.00000E+00 0.00000E+00
 5.50000E+00 0.00000E+00
 6.00000E+00 0.00000E+00
 6.50000E+00 0.00000E+00
 7.00000E+00 0.00000E+00
 7.50000E+00 0.00000E+00
 8.00000E+00 0.00000E+00
 8.50000E+00 0.00000E+00
 9.00000E+00 0.00000E+00
 9.50000E+00 0.00000E+00
 1.00000E+01 0.00000E+00
 1.10000E+01 1.21884E+01
 1.20000E+01 5.12730E+01
 1.30000E+01 8.30744E+01
 1.40000E+01 1.00713E+02
 1.50000E+01 1.09679E+02
 1.60000E+01 1.13149E+02
 1.70000E+01 1.07673E+02
 1.80000E+01 9.25289E+01
 1.90000E+01 7.29812E+01
 2.00000E+01 5.48573E+01
 2.10000E+01 4.13515E+01
 2.20000E+01 3.27111E+01
 2.30000E+01 2.73420E+01
 2.40000E+01 2.41147E+01
 2.50000E+01 2.20347E+01
 2.60000E+01 2.05711E+01
 2.70000E+01 1.94264E+01
 2.80000E+01 1.85755E+01
 2.90000E+01 1.78950E+01
 3.00000E+01 1.71505E+01
