# n + Pb208: Gamma-ray intensity - 207Pb: Level  2 --> Level  1 - gamma energy    0.328000
# E-initial  =   0.897698 E-final=   0.569698
# E-threshold= 8.30566E+00
# # energies =    67
#    E           xs
 1.00000E-11 0.00000E+00
 2.53000E-08 0.00000E+00
 2.00000E-07 0.00000E+00
 1.00000E-06 0.00000E+00
 1.00000E-03 0.00000E+00
 2.00000E-03 0.00000E+00
 5.00000E-03 0.00000E+00
 1.00000E-02 0.00000E+00
 2.00000E-02 0.00000E+00
 5.00000E-02 0.00000E+00
 1.00000E-01 0.00000E+00
 2.00000E-01 0.00000E+00
 3.00000E-01 0.00000E+00
 4.00000E-01 0.00000E+00
 5.00000E-01 0.00000E+00
 7.50000E-01 0.00000E+00
 1.00000E+00 0.00000E+00
 1.20000E+00 0.00000E+00
 1.40000E+00 0.00000E+00
 1.60000E+00 0.00000E+00
 1.80000E+00 0.00000E+00
 2.00000E+00 0.00000E+00
 2.20000E+00 0.00000E+00
 2.40000E+00 0.00000E+00
 2.60000E+00 0.00000E+00
 2.80000E+00 0.00000E+00
 3.00000E+00 0.00000E+00
 3.20000E+00 0.00000E+00
 3.40000E+00 0.00000E+00
 3.60000E+00 0.00000E+00
 3.80000E+00 0.00000E+00
 4.00000E+00 0.00000E+00
 4.20000E+00 0.00000E+00
 4.40000E+00 0.00000E+00
 4.60000E+00 0.00000E+00
 4.80000E+00 0.00000E+00
 5.00000E+00 0.00000E+00
 5.50000E+00 0.00000E+00
 6.00000E+00 0.00000E+00
 6.50000E+00 0.00000E+00
 7.00000E+00 0.00000E+00
 7.50000E+00 0.00000E+00
 8.00000E+00 0.00000E+00
 8.50000E+00 6.45676E-03
 9.00000E+00 1.25592E-01
 9.50000E+00 3.68485E-01
 1.00000E+01 6.40390E-01
 1.10000E+01 1.08123E+00
 1.20000E+01 1.21308E+00
 1.30000E+01 1.13311E+00
 1.40000E+01 1.00416E+00
 1.50000E+01 8.97261E-01
 1.60000E+01 7.83685E-01
 1.70000E+01 6.55578E-01
 1.80000E+01 5.31657E-01
 1.90000E+01 4.23528E-01
 2.00000E+01 3.37646E-01
 2.10000E+01 2.72214E-01
 2.20000E+01 2.29025E-01
 2.30000E+01 1.99771E-01
 2.40000E+01 1.80338E-01
 2.50000E+01 1.66234E-01
 2.60000E+01 1.56576E-01
 2.70000E+01 1.48282E-01
 2.80000E+01 1.41274E-01
 2.90000E+01 1.36701E-01
 3.00000E+01 1.30978E-01
