# n + Pb208: Gamma-ray intensity - 208Pb: Level 13 --> Level  0 - gamma energy    4.144000
# E-initial  =   4.144000 E-final=   0.000000
# E-threshold= 4.16410E+00
# # energies =    67
#    E           xs
 1.00000E-11 0.00000E+00
 2.53000E-08 0.00000E+00
 2.00000E-07 0.00000E+00
 1.00000E-06 0.00000E+00
 1.00000E-03 0.00000E+00
 2.00000E-03 0.00000E+00
 5.00000E-03 0.00000E+00
 1.00000E-02 0.00000E+00
 2.00000E-02 0.00000E+00
 5.00000E-02 0.00000E+00
 1.00000E-01 0.00000E+00
 2.00000E-01 0.00000E+00
 3.00000E-01 0.00000E+00
 4.00000E-01 0.00000E+00
 5.00000E-01 0.00000E+00
 7.50000E-01 0.00000E+00
 1.00000E+00 0.00000E+00
 1.20000E+00 0.00000E+00
 1.40000E+00 0.00000E+00
 1.60000E+00 0.00000E+00
 1.80000E+00 0.00000E+00
 2.00000E+00 0.00000E+00
 2.20000E+00 0.00000E+00
 2.40000E+00 0.00000E+00
 2.60000E+00 0.00000E+00
 2.80000E+00 0.00000E+00
 3.00000E+00 0.00000E+00
 3.20000E+00 0.00000E+00
 3.40000E+00 0.00000E+00
 3.60000E+00 0.00000E+00
 3.80000E+00 0.00000E+00
 4.00000E+00 0.00000E+00
 4.20000E+00 1.50314E+01
 4.40000E+00 5.64630E+01
 4.60000E+00 7.55224E+01
 4.80000E+00 8.06448E+01
 5.00000E+00 7.95494E+01
 5.50000E+00 7.13659E+01
 6.00000E+00 6.27014E+01
 6.50000E+00 5.24079E+01
 7.00000E+00 4.32781E+01
 7.50000E+00 3.68229E+01
 8.00000E+00 2.93499E+01
 8.50000E+00 2.22594E+01
 9.00000E+00 1.65192E+01
 9.50000E+00 1.22393E+01
 1.00000E+01 9.03805E+00
 1.10000E+01 5.21721E+00
 1.20000E+01 3.51204E+00
 1.30000E+01 2.65738E+00
 1.40000E+01 2.24904E+00
 1.50000E+01 1.96135E+00
 1.60000E+01 1.80292E+00
 1.70000E+01 1.76930E+00
 1.80000E+01 1.70575E+00
 1.90000E+01 1.62535E+00
 2.00000E+01 1.62782E+00
 2.10000E+01 1.54867E+00
 2.20000E+01 1.56067E+00
 2.30000E+01 1.49132E+00
 2.40000E+01 1.45823E+00
 2.50000E+01 1.43290E+00
 2.60000E+01 1.35083E+00
 2.70000E+01 1.30278E+00
 2.80000E+01 1.28399E+00
 2.90000E+01 1.25921E+00
 3.00000E+01 1.16521E+00
