# n + Pb208: Gamma-ray intensity - 209Pb: Level  3 --> Level  0 - gamma energy    1.567086
# E-initial  =   1.567086 E-final=   0.000000
# E-threshold= 0.00000E+00
# # energies =    67
#    E           xs
 1.00000E-11 0.00000E+00
 2.53000E-08 0.00000E+00
 2.00000E-07 0.00000E+00
 1.00000E-06 1.15598E+03
 1.00000E-03 5.82892E+00
 2.00000E-03 3.44106E+00
 5.00000E-03 1.80994E+00
 1.00000E-02 1.13549E+00
 2.00000E-02 6.72275E-01
 5.00000E-02 3.37327E-01
 1.00000E-01 2.30207E-01
 2.00000E-01 1.73444E-01
 3.00000E-01 1.52458E-01
 4.00000E-01 1.43217E-01
 5.00000E-01 1.40087E-01
 7.50000E-01 1.47166E-01
 1.00000E+00 1.67757E-01
 1.20000E+00 1.92002E-01
 1.40000E+00 2.23708E-01
 1.60000E+00 2.62083E-01
 1.80000E+00 3.08810E-01
 2.00000E+00 3.65042E-01
 2.20000E+00 4.31383E-01
 2.40000E+00 5.11099E-01
 2.60000E+00 6.06811E-01
 2.80000E+00 5.29025E-01
 3.00000E+00 5.32447E-01
 3.20000E+00 5.62054E-01
 3.40000E+00 5.87104E-01
 3.60000E+00 6.13000E-01
 3.80000E+00 6.28985E-01
 4.00000E+00 6.46406E-01
 4.20000E+00 5.95149E-01
 4.40000E+00 5.06695E-01
 4.60000E+00 4.31254E-01
 4.80000E+00 3.71761E-01
 5.00000E+00 3.17011E-01
 5.50000E+00 2.36400E-01
 6.00000E+00 1.80938E-01
 6.50000E+00 1.54327E-01
 7.00000E+00 1.37127E-01
 7.50000E+00 1.36941E-01
 8.00000E+00 1.46473E-01
 8.50000E+00 1.61951E-01
 9.00000E+00 1.91376E-01
 9.50000E+00 2.29920E-01
 1.00000E+01 2.74545E-01
 1.10000E+01 3.62882E-01
 1.20000E+01 4.04736E-01
 1.30000E+01 3.70009E-01
 1.40000E+01 3.05068E-01
 1.50000E+01 2.48171E-01
 1.60000E+01 2.02317E-01
 1.70000E+01 1.71198E-01
 1.80000E+01 1.37348E-01
 1.90000E+01 1.20639E-01
 2.00000E+01 1.06511E-01
 2.10000E+01 9.47108E-02
 2.20000E+01 8.57497E-02
 2.30000E+01 7.88637E-02
 2.40000E+01 7.20744E-02
 2.50000E+01 6.68823E-02
 2.60000E+01 6.26154E-02
 2.70000E+01 5.85502E-02
 2.80000E+01 5.12556E-02
 2.90000E+01 4.86552E-02
 3.00000E+01 4.62280E-02
