# n + Pb208: Gamma-ray intensity - 207Pb: Level  9 --> Level  4 - gamma energy    0.562079
# E-initial  =   2.902000 E-final=   2.339921
# E-threshold= 1.03197E+01
# # energies =    67
#    E           xs
 1.00000E-11 0.00000E+00
 2.53000E-08 0.00000E+00
 2.00000E-07 0.00000E+00
 1.00000E-06 0.00000E+00
 1.00000E-03 0.00000E+00
 2.00000E-03 0.00000E+00
 5.00000E-03 0.00000E+00
 1.00000E-02 0.00000E+00
 2.00000E-02 0.00000E+00
 5.00000E-02 0.00000E+00
 1.00000E-01 0.00000E+00
 2.00000E-01 0.00000E+00
 3.00000E-01 0.00000E+00
 4.00000E-01 0.00000E+00
 5.00000E-01 0.00000E+00
 7.50000E-01 0.00000E+00
 1.00000E+00 0.00000E+00
 1.20000E+00 0.00000E+00
 1.40000E+00 0.00000E+00
 1.60000E+00 0.00000E+00
 1.80000E+00 0.00000E+00
 2.00000E+00 0.00000E+00
 2.20000E+00 0.00000E+00
 2.40000E+00 0.00000E+00
 2.60000E+00 0.00000E+00
 2.80000E+00 0.00000E+00
 3.00000E+00 0.00000E+00
 3.20000E+00 0.00000E+00
 3.40000E+00 0.00000E+00
 3.60000E+00 0.00000E+00
 3.80000E+00 0.00000E+00
 4.00000E+00 0.00000E+00
 4.20000E+00 0.00000E+00
 4.40000E+00 0.00000E+00
 4.60000E+00 0.00000E+00
 4.80000E+00 0.00000E+00
 5.00000E+00 0.00000E+00
 5.50000E+00 0.00000E+00
 6.00000E+00 0.00000E+00
 6.50000E+00 0.00000E+00
 7.00000E+00 0.00000E+00
 7.50000E+00 0.00000E+00
 8.00000E+00 0.00000E+00
 8.50000E+00 0.00000E+00
 9.00000E+00 0.00000E+00
 9.50000E+00 0.00000E+00
 1.00000E+01 0.00000E+00
 1.10000E+01 1.51878E-03
 1.20000E+01 6.38905E-03
 1.30000E+01 1.03518E-02
 1.40000E+01 1.25497E-02
 1.50000E+01 1.36669E-02
 1.60000E+01 1.40993E-02
 1.70000E+01 1.34170E-02
 1.80000E+01 1.15299E-02
 1.90000E+01 9.09407E-03
 2.00000E+01 6.83568E-03
 2.10000E+01 5.15275E-03
 2.20000E+01 4.07608E-03
 2.30000E+01 3.40704E-03
 2.40000E+01 3.00490E-03
 2.50000E+01 2.74571E-03
 2.60000E+01 2.56333E-03
 2.70000E+01 2.42070E-03
 2.80000E+01 2.31466E-03
 2.90000E+01 2.22987E-03
 3.00000E+01 2.13710E-03
