# n + Pb208: Gamma-ray intensity - 208Pb: Level  9 --> Level  5 - gamma energy    0.117477
# E-initial  =   4.037443 E-final=   3.919966
# E-threshold= 4.05702E+00
# # energies =    67
#    E           xs
 1.00000E-11 0.00000E+00
 2.53000E-08 0.00000E+00
 2.00000E-07 0.00000E+00
 1.00000E-06 0.00000E+00
 1.00000E-03 0.00000E+00
 2.00000E-03 0.00000E+00
 5.00000E-03 0.00000E+00
 1.00000E-02 0.00000E+00
 2.00000E-02 0.00000E+00
 5.00000E-02 0.00000E+00
 1.00000E-01 0.00000E+00
 2.00000E-01 0.00000E+00
 3.00000E-01 0.00000E+00
 4.00000E-01 0.00000E+00
 5.00000E-01 0.00000E+00
 7.50000E-01 0.00000E+00
 1.00000E+00 0.00000E+00
 1.20000E+00 0.00000E+00
 1.40000E+00 0.00000E+00
 1.60000E+00 0.00000E+00
 1.80000E+00 0.00000E+00
 2.00000E+00 0.00000E+00
 2.20000E+00 0.00000E+00
 2.40000E+00 0.00000E+00
 2.60000E+00 0.00000E+00
 2.80000E+00 0.00000E+00
 3.00000E+00 0.00000E+00
 3.20000E+00 0.00000E+00
 3.40000E+00 0.00000E+00
 3.60000E+00 0.00000E+00
 3.80000E+00 0.00000E+00
 4.00000E+00 0.00000E+00
 4.20000E+00 2.58501E-01
 4.40000E+00 7.08734E-01
 4.60000E+00 1.14106E+00
 4.80000E+00 1.52376E+00
 5.00000E+00 1.89665E+00
 5.50000E+00 2.98066E+00
 6.00000E+00 4.38149E+00
 6.50000E+00 6.07812E+00
 7.00000E+00 8.05498E+00
 7.50000E+00 1.02541E+01
 8.00000E+00 1.24901E+01
 8.50000E+00 1.45049E+01
 9.00000E+00 1.57717E+01
 9.50000E+00 1.56591E+01
 1.00000E+01 1.43685E+01
 1.10000E+01 1.03369E+01
 1.20000E+01 6.70896E+00
 1.30000E+01 4.73381E+00
 1.40000E+01 3.70087E+00
 1.50000E+01 3.24755E+00
 1.60000E+01 2.99000E+00
 1.70000E+01 2.89982E+00
 1.80000E+01 2.77194E+00
 1.90000E+01 2.65161E+00
 2.00000E+01 2.53421E+00
 2.10000E+01 2.42096E+00
 2.20000E+01 2.34225E+00
 2.30000E+01 2.26980E+00
 2.40000E+01 2.13320E+00
 2.50000E+01 2.04483E+00
 2.60000E+01 1.91797E+00
 2.70000E+01 1.81107E+00
 2.80000E+01 1.75205E+00
 2.90000E+01 1.61160E+00
 3.00000E+01 1.52376E+00
