# n + Pb208: Gamma-ray intensity - 208Pb: Level  7 --> Level  2 - gamma energy    0.763451
# E-initial  =   3.961162 E-final=   3.197711
# E-threshold= 3.98037E+00
# # energies =    67
#    E           xs
 1.00000E-11 0.00000E+00
 2.53000E-08 0.00000E+00
 2.00000E-07 0.00000E+00
 1.00000E-06 0.00000E+00
 1.00000E-03 0.00000E+00
 2.00000E-03 0.00000E+00
 5.00000E-03 0.00000E+00
 1.00000E-02 0.00000E+00
 2.00000E-02 0.00000E+00
 5.00000E-02 0.00000E+00
 1.00000E-01 0.00000E+00
 2.00000E-01 0.00000E+00
 3.00000E-01 0.00000E+00
 4.00000E-01 0.00000E+00
 5.00000E-01 0.00000E+00
 7.50000E-01 0.00000E+00
 1.00000E+00 0.00000E+00
 1.20000E+00 0.00000E+00
 1.40000E+00 0.00000E+00
 1.60000E+00 0.00000E+00
 1.80000E+00 0.00000E+00
 2.00000E+00 0.00000E+00
 2.20000E+00 0.00000E+00
 2.40000E+00 0.00000E+00
 2.60000E+00 0.00000E+00
 2.80000E+00 0.00000E+00
 3.00000E+00 0.00000E+00
 3.20000E+00 0.00000E+00
 3.40000E+00 0.00000E+00
 3.60000E+00 0.00000E+00
 3.80000E+00 0.00000E+00
 4.00000E+00 1.02749E+01
 4.20000E+00 3.55176E+01
 4.40000E+00 4.86269E+01
 4.60000E+00 5.56433E+01
 4.80000E+00 5.82774E+01
 5.00000E+00 5.87448E+01
 5.50000E+00 5.73238E+01
 6.00000E+00 5.55061E+01
 6.50000E+00 5.41771E+01
 7.00000E+00 5.39944E+01
 7.50000E+00 5.48718E+01
 8.00000E+00 5.50527E+01
 8.50000E+00 5.20267E+01
 9.00000E+00 4.52604E+01
 9.50000E+00 3.68931E+01
 1.00000E+01 2.87210E+01
 1.10000E+01 1.64314E+01
 1.20000E+01 1.00753E+01
 1.30000E+01 7.23659E+00
 1.40000E+01 5.88762E+00
 1.50000E+01 5.21736E+00
 1.60000E+01 4.77275E+00
 1.70000E+01 4.52236E+00
 1.80000E+01 4.25863E+00
 1.90000E+01 4.03006E+00
 2.00000E+01 3.82410E+00
 2.10000E+01 3.64954E+00
 2.20000E+01 3.48738E+00
 2.30000E+01 3.34775E+00
 2.40000E+01 3.15941E+00
 2.50000E+01 3.02172E+00
 2.60000E+01 2.86856E+00
 2.70000E+01 2.73744E+00
 2.80000E+01 2.64521E+00
 2.90000E+01 2.53323E+00
 3.00000E+01 2.40877E+00
