# n + Pb208: Gamma-ray intensity - 208Pb: Level 12 --> Level  6 - gamma energy    0.178769
# E-initial  =   4.125347 E-final=   3.946578
# E-threshold= 4.14535E+00
# # energies =    67
#    E           xs
 1.00000E-11 0.00000E+00
 2.53000E-08 0.00000E+00
 2.00000E-07 0.00000E+00
 1.00000E-06 0.00000E+00
 1.00000E-03 0.00000E+00
 2.00000E-03 0.00000E+00
 5.00000E-03 0.00000E+00
 1.00000E-02 0.00000E+00
 2.00000E-02 0.00000E+00
 5.00000E-02 0.00000E+00
 1.00000E-01 0.00000E+00
 2.00000E-01 0.00000E+00
 3.00000E-01 0.00000E+00
 4.00000E-01 0.00000E+00
 5.00000E-01 0.00000E+00
 7.50000E-01 0.00000E+00
 1.00000E+00 0.00000E+00
 1.20000E+00 0.00000E+00
 1.40000E+00 0.00000E+00
 1.60000E+00 0.00000E+00
 1.80000E+00 0.00000E+00
 2.00000E+00 0.00000E+00
 2.20000E+00 0.00000E+00
 2.40000E+00 0.00000E+00
 2.60000E+00 0.00000E+00
 2.80000E+00 0.00000E+00
 3.00000E+00 0.00000E+00
 3.20000E+00 0.00000E+00
 3.40000E+00 0.00000E+00
 3.60000E+00 0.00000E+00
 3.80000E+00 0.00000E+00
 4.00000E+00 0.00000E+00
 4.20000E+00 1.35511E-01
 4.40000E+00 3.07086E-01
 4.60000E+00 4.13277E-01
 4.80000E+00 4.66407E-01
 5.00000E+00 4.85087E-01
 5.50000E+00 4.77288E-01
 6.00000E+00 4.61983E-01
 6.50000E+00 4.52374E-01
 7.00000E+00 4.50074E-01
 7.50000E+00 4.55916E-01
 8.00000E+00 4.57501E-01
 8.50000E+00 4.35779E-01
 9.00000E+00 3.86196E-01
 9.50000E+00 3.24705E-01
 1.00000E+01 2.64441E-01
 1.10000E+01 1.73202E-01
 1.20000E+01 1.25242E-01
 1.30000E+01 1.02927E-01
 1.40000E+01 9.12188E-02
 1.50000E+01 8.42795E-02
 1.60000E+01 7.90518E-02
 1.70000E+01 7.55322E-02
 1.80000E+01 7.22289E-02
 1.90000E+01 6.93561E-02
 2.00000E+01 6.66983E-02
 2.10000E+01 6.42234E-02
 2.20000E+01 6.18180E-02
 2.30000E+01 5.95677E-02
 2.40000E+01 5.70392E-02
 2.50000E+01 5.50042E-02
 2.60000E+01 5.29295E-02
 2.70000E+01 5.10628E-02
 2.80000E+01 4.95114E-02
 2.90000E+01 4.78483E-02
 3.00000E+01 4.60545E-02
