# n + Pb208: Gamma-ray intensity - 207Pb: Level 10 --> Level  4 - gamma energy    0.569079
# E-initial  =   2.909000 E-final=   2.339921
# E-threshold= 1.03267E+01
# # energies =    67
#    E           xs
 1.00000E-11 0.00000E+00
 2.53000E-08 0.00000E+00
 2.00000E-07 0.00000E+00
 1.00000E-06 0.00000E+00
 1.00000E-03 0.00000E+00
 2.00000E-03 0.00000E+00
 5.00000E-03 0.00000E+00
 1.00000E-02 0.00000E+00
 2.00000E-02 0.00000E+00
 5.00000E-02 0.00000E+00
 1.00000E-01 0.00000E+00
 2.00000E-01 0.00000E+00
 3.00000E-01 0.00000E+00
 4.00000E-01 0.00000E+00
 5.00000E-01 0.00000E+00
 7.50000E-01 0.00000E+00
 1.00000E+00 0.00000E+00
 1.20000E+00 0.00000E+00
 1.40000E+00 0.00000E+00
 1.60000E+00 0.00000E+00
 1.80000E+00 0.00000E+00
 2.00000E+00 0.00000E+00
 2.20000E+00 0.00000E+00
 2.40000E+00 0.00000E+00
 2.60000E+00 0.00000E+00
 2.80000E+00 0.00000E+00
 3.00000E+00 0.00000E+00
 3.20000E+00 0.00000E+00
 3.40000E+00 0.00000E+00
 3.60000E+00 0.00000E+00
 3.80000E+00 0.00000E+00
 4.00000E+00 0.00000E+00
 4.20000E+00 0.00000E+00
 4.40000E+00 0.00000E+00
 4.60000E+00 0.00000E+00
 4.80000E+00 0.00000E+00
 5.00000E+00 0.00000E+00
 5.50000E+00 0.00000E+00
 6.00000E+00 0.00000E+00
 6.50000E+00 0.00000E+00
 7.00000E+00 0.00000E+00
 7.50000E+00 0.00000E+00
 8.00000E+00 0.00000E+00
 8.50000E+00 0.00000E+00
 9.00000E+00 0.00000E+00
 9.50000E+00 0.00000E+00
 1.00000E+01 0.00000E+00
 1.10000E+01 8.09592E-04
 1.20000E+01 4.12109E-03
 1.30000E+01 6.99742E-03
 1.40000E+01 8.04006E-03
 1.50000E+01 7.98711E-03
 1.60000E+01 7.69732E-03
 1.70000E+01 7.51354E-03
 1.80000E+01 7.26032E-03
 1.90000E+01 6.62252E-03
 2.00000E+01 5.63284E-03
 2.10000E+01 4.62722E-03
 2.20000E+01 3.85433E-03
 2.30000E+01 3.32967E-03
 2.40000E+01 3.00937E-03
 2.50000E+01 2.80629E-03
 2.60000E+01 2.67687E-03
 2.70000E+01 2.59328E-03
 2.80000E+01 2.53012E-03
 2.90000E+01 2.50064E-03
 3.00000E+01 2.44147E-03
