# n + Pb208: Gamma-ray intensity - 209Pb: Level  2 --> Level  0 - gamma energy    1.422640
# E-initial  =   1.422640 E-final=   0.000000
# E-threshold= 0.00000E+00
# # energies =    67
#    E           xs
 1.00000E-11 0.00000E+00
 2.53000E-08 0.00000E+00
 2.00000E-07 0.00000E+00
 1.00000E-06 0.00000E+00
 1.00000E-03 0.00000E+00
 2.00000E-03 0.00000E+00
 5.00000E-03 0.00000E+00
 1.00000E-02 0.00000E+00
 2.00000E-02 0.00000E+00
 5.00000E-02 5.83838E-11
 1.00000E-01 3.50111E-09
 2.00000E-01 2.25722E-07
 3.00000E-01 1.13353E-05
 4.00000E-01 4.38354E-05
 5.00000E-01 1.18369E-04
 7.50000E-01 5.11658E-04
 1.00000E+00 4.05380E-03
 1.20000E+00 8.61134E-03
 1.40000E+00 1.66063E-02
 1.60000E+00 2.74555E-02
 1.80000E+00 4.21285E-02
 2.00000E+00 6.27694E-02
 2.20000E+00 8.94242E-02
 2.40000E+00 1.24586E-01
 2.60000E+00 1.70882E-01
 2.80000E+00 2.14800E-01
 3.00000E+00 2.37153E-01
 3.20000E+00 2.63006E-01
 3.40000E+00 1.36916E-01
 3.60000E+00 1.11402E-01
 3.80000E+00 9.40956E-02
 4.00000E+00 7.39166E-02
 4.20000E+00 4.49938E-02
 4.40000E+00 4.23578E-02
 4.60000E+00 3.97491E-02
 4.80000E+00 3.99408E-02
 5.00000E+00 3.97943E-02
 5.50000E+00 4.42467E-02
 6.00000E+00 5.02291E-02
 6.50000E+00 5.81430E-02
 7.00000E+00 6.79534E-02
 7.50000E+00 7.88979E-02
 8.00000E+00 9.09511E-02
 8.50000E+00 1.04355E-01
 9.00000E+00 1.19633E-01
 9.50000E+00 1.37019E-01
 1.00000E+01 1.55749E-01
 1.10000E+01 1.89497E-01
 1.20000E+01 2.13260E-01
 1.30000E+01 2.37642E-01
 1.40000E+01 2.64424E-01
 1.50000E+01 2.81061E-01
 1.60000E+01 2.76309E-01
 1.70000E+01 2.53953E-01
 1.80000E+01 2.18104E-01
 1.90000E+01 1.84791E-01
 2.00000E+01 1.54663E-01
 2.10000E+01 1.32768E-01
 2.20000E+01 1.12486E-01
 2.30000E+01 9.75629E-02
 2.40000E+01 8.38347E-02
 2.50000E+01 7.50243E-02
 2.60000E+01 6.76466E-02
 2.70000E+01 6.10464E-02
 2.80000E+01 5.55723E-02
 2.90000E+01 5.22886E-02
 3.00000E+01 4.89798E-02
