# n + Pb208: Gamma-ray intensity - 208Pb: Level  8 --> Level  1 - gamma energy    1.380916
# E-initial  =   3.995438 E-final=   2.614522
# E-threshold= 4.01482E+00
# # energies =    67
#    E           xs
 1.00000E-11 0.00000E+00
 2.53000E-08 0.00000E+00
 2.00000E-07 0.00000E+00
 1.00000E-06 0.00000E+00
 1.00000E-03 0.00000E+00
 2.00000E-03 0.00000E+00
 5.00000E-03 0.00000E+00
 1.00000E-02 0.00000E+00
 2.00000E-02 0.00000E+00
 5.00000E-02 0.00000E+00
 1.00000E-01 0.00000E+00
 2.00000E-01 0.00000E+00
 3.00000E-01 0.00000E+00
 4.00000E-01 0.00000E+00
 5.00000E-01 0.00000E+00
 7.50000E-01 0.00000E+00
 1.00000E+00 0.00000E+00
 1.20000E+00 0.00000E+00
 1.40000E+00 0.00000E+00
 1.60000E+00 0.00000E+00
 1.80000E+00 0.00000E+00
 2.00000E+00 0.00000E+00
 2.20000E+00 0.00000E+00
 2.40000E+00 0.00000E+00
 2.60000E+00 0.00000E+00
 2.80000E+00 0.00000E+00
 3.00000E+00 0.00000E+00
 3.20000E+00 0.00000E+00
 3.40000E+00 0.00000E+00
 3.60000E+00 0.00000E+00
 3.80000E+00 0.00000E+00
 4.00000E+00 0.00000E+00
 4.20000E+00 4.98804E+01
 4.40000E+00 7.39078E+01
 4.60000E+00 8.44350E+01
 4.80000E+00 8.67126E+01
 5.00000E+00 8.52944E+01
 5.50000E+00 7.85685E+01
 6.00000E+00 7.24298E+01
 6.50000E+00 6.71847E+01
 7.00000E+00 6.35144E+01
 7.50000E+00 6.14183E+01
 8.00000E+00 5.76461E+01
 8.50000E+00 5.02270E+01
 9.00000E+00 4.08027E+01
 9.50000E+00 3.14833E+01
 1.00000E+01 2.34184E+01
 1.10000E+01 1.26539E+01
 1.20000E+01 7.57816E+00
 1.30000E+01 5.33421E+00
 1.40000E+01 4.29133E+00
 1.50000E+01 3.74760E+00
 1.60000E+01 3.38573E+00
 1.70000E+01 3.20078E+00
 1.80000E+01 2.99577E+00
 1.90000E+01 2.81172E+00
 2.00000E+01 2.67011E+00
 2.10000E+01 2.54226E+00
 2.20000E+01 2.43649E+00
 2.30000E+01 2.32796E+00
 2.40000E+01 2.19750E+00
 2.50000E+01 2.10144E+00
 2.60000E+01 1.99424E+00
 2.70000E+01 1.89512E+00
 2.80000E+01 1.83502E+00
 2.90000E+01 1.77412E+00
 3.00000E+01 1.66784E+00
