# n + Pb208: Gamma-ray intensity - 208Pb: Level  3 --> Level  1 - gamma energy    0.860556
# E-initial  =   3.475078 E-final=   2.614522
# E-threshold= 3.49193E+00
# # energies =    67
#    E           xs
 1.00000E-11 0.00000E+00
 2.53000E-08 0.00000E+00
 2.00000E-07 0.00000E+00
 1.00000E-06 0.00000E+00
 1.00000E-03 0.00000E+00
 2.00000E-03 0.00000E+00
 5.00000E-03 0.00000E+00
 1.00000E-02 0.00000E+00
 2.00000E-02 0.00000E+00
 5.00000E-02 0.00000E+00
 1.00000E-01 0.00000E+00
 2.00000E-01 0.00000E+00
 3.00000E-01 0.00000E+00
 4.00000E-01 0.00000E+00
 5.00000E-01 0.00000E+00
 7.50000E-01 0.00000E+00
 1.00000E+00 0.00000E+00
 1.20000E+00 0.00000E+00
 1.40000E+00 0.00000E+00
 1.60000E+00 0.00000E+00
 1.80000E+00 0.00000E+00
 2.00000E+00 0.00000E+00
 2.20000E+00 0.00000E+00
 2.40000E+00 0.00000E+00
 2.60000E+00 0.00000E+00
 2.80000E+00 0.00000E+00
 3.00000E+00 0.00000E+00
 3.20000E+00 0.00000E+00
 3.40000E+00 0.00000E+00
 3.60000E+00 4.81061E+01
 3.80000E+00 9.85487E+01
 4.00000E+00 1.35195E+02
 4.20000E+00 1.52513E+02
 4.40000E+00 1.58497E+02
 4.60000E+00 1.60336E+02
 4.80000E+00 1.60995E+02
 5.00000E+00 1.61236E+02
 5.50000E+00 1.58936E+02
 6.00000E+00 1.53088E+02
 6.50000E+00 1.47947E+02
 7.00000E+00 1.44754E+02
 7.50000E+00 1.43031E+02
 8.00000E+00 1.36185E+02
 8.50000E+00 1.20488E+02
 9.00000E+00 9.95359E+01
 9.50000E+00 7.81013E+01
 1.00000E+01 5.90273E+01
 1.10000E+01 3.27897E+01
 1.20000E+01 2.01748E+01
 1.30000E+01 1.46148E+01
 1.40000E+01 1.20104E+01
 1.50000E+01 1.05814E+01
 1.60000E+01 9.58232E+00
 1.70000E+01 9.00334E+00
 1.80000E+01 8.37846E+00
 1.90000E+01 7.81744E+00
 2.00000E+01 7.36698E+00
 2.10000E+01 6.95654E+00
 2.20000E+01 6.59827E+00
 2.30000E+01 6.25532E+00
 2.40000E+01 5.86711E+00
 2.50000E+01 5.55105E+00
 2.60000E+01 5.24371E+00
 2.70000E+01 4.98326E+00
 2.80000E+01 4.82645E+00
 2.90000E+01 4.65987E+00
 3.00000E+01 4.41998E+00
