# n + Pb208: Gamma-ray intensity - 208Pb: Level  5 --> Level  4 - gamma energy    0.211515
# E-initial  =   3.919966 E-final=   3.708451
# E-threshold= 3.93898E+00
# # energies =    67
#    E           xs
 1.00000E-11 0.00000E+00
 2.53000E-08 0.00000E+00
 2.00000E-07 0.00000E+00
 1.00000E-06 0.00000E+00
 1.00000E-03 0.00000E+00
 2.00000E-03 0.00000E+00
 5.00000E-03 0.00000E+00
 1.00000E-02 0.00000E+00
 2.00000E-02 0.00000E+00
 5.00000E-02 0.00000E+00
 1.00000E-01 0.00000E+00
 2.00000E-01 0.00000E+00
 3.00000E-01 0.00000E+00
 4.00000E-01 0.00000E+00
 5.00000E-01 0.00000E+00
 7.50000E-01 0.00000E+00
 1.00000E+00 0.00000E+00
 1.20000E+00 0.00000E+00
 1.40000E+00 0.00000E+00
 1.60000E+00 0.00000E+00
 1.80000E+00 0.00000E+00
 2.00000E+00 0.00000E+00
 2.20000E+00 0.00000E+00
 2.40000E+00 0.00000E+00
 2.60000E+00 0.00000E+00
 2.80000E+00 0.00000E+00
 3.00000E+00 0.00000E+00
 3.20000E+00 0.00000E+00
 3.40000E+00 0.00000E+00
 3.60000E+00 0.00000E+00
 3.80000E+00 0.00000E+00
 4.00000E+00 5.60392E+00
 4.20000E+00 1.18976E+01
 4.40000E+00 1.55798E+01
 4.60000E+00 1.86249E+01
 4.80000E+00 2.10473E+01
 5.00000E+00 2.32565E+01
 5.50000E+00 2.89952E+01
 6.00000E+00 3.52835E+01
 6.50000E+00 4.21741E+01
 7.00000E+00 4.98912E+01
 7.50000E+00 5.83021E+01
 8.00000E+00 6.64142E+01
 8.50000E+00 7.24349E+01
 9.00000E+00 7.35612E+01
 9.50000E+00 6.84085E+01
 1.00000E+01 5.92590E+01
 1.10000E+01 3.88222E+01
 1.20000E+01 2.39330E+01
 1.30000E+01 1.65819E+01
 1.40000E+01 1.28834E+01
 1.50000E+01 1.12492E+01
 1.60000E+01 1.02967E+01
 1.70000E+01 9.89084E+00
 1.80000E+01 9.35515E+00
 1.90000E+01 8.87626E+00
 2.00000E+01 8.41053E+00
 2.10000E+01 7.97644E+00
 2.20000E+01 7.63453E+00
 2.30000E+01 7.37881E+00
 2.40000E+01 6.87806E+00
 2.50000E+01 6.57133E+00
 2.60000E+01 6.11816E+00
 2.70000E+01 5.79020E+00
 2.80000E+01 5.60469E+00
 2.90000E+01 5.14732E+00
 3.00000E+01 4.88860E+00
