# n + Pb208: Gamma-ray intensity - 207Pb: Level  6 --> Level  4 - gamma energy    0.322555
# E-initial  =   2.662476 E-final=   2.339921
# E-threshold= 1.00790E+01
# # energies =    67
#    E           xs
 1.00000E-11 0.00000E+00
 2.53000E-08 0.00000E+00
 2.00000E-07 0.00000E+00
 1.00000E-06 0.00000E+00
 1.00000E-03 0.00000E+00
 2.00000E-03 0.00000E+00
 5.00000E-03 0.00000E+00
 1.00000E-02 0.00000E+00
 2.00000E-02 0.00000E+00
 5.00000E-02 0.00000E+00
 1.00000E-01 0.00000E+00
 2.00000E-01 0.00000E+00
 3.00000E-01 0.00000E+00
 4.00000E-01 0.00000E+00
 5.00000E-01 0.00000E+00
 7.50000E-01 0.00000E+00
 1.00000E+00 0.00000E+00
 1.20000E+00 0.00000E+00
 1.40000E+00 0.00000E+00
 1.60000E+00 0.00000E+00
 1.80000E+00 0.00000E+00
 2.00000E+00 0.00000E+00
 2.20000E+00 0.00000E+00
 2.40000E+00 0.00000E+00
 2.60000E+00 0.00000E+00
 2.80000E+00 0.00000E+00
 3.00000E+00 0.00000E+00
 3.20000E+00 0.00000E+00
 3.40000E+00 0.00000E+00
 3.60000E+00 0.00000E+00
 3.80000E+00 0.00000E+00
 4.00000E+00 0.00000E+00
 4.20000E+00 0.00000E+00
 4.40000E+00 0.00000E+00
 4.60000E+00 0.00000E+00
 4.80000E+00 0.00000E+00
 5.00000E+00 0.00000E+00
 5.50000E+00 0.00000E+00
 6.00000E+00 0.00000E+00
 6.50000E+00 0.00000E+00
 7.00000E+00 0.00000E+00
 7.50000E+00 0.00000E+00
 8.00000E+00 0.00000E+00
 8.50000E+00 0.00000E+00
 9.00000E+00 0.00000E+00
 9.50000E+00 0.00000E+00
 1.00000E+01 0.00000E+00
 1.10000E+01 2.66123E-01
 1.20000E+01 9.07022E-01
 1.30000E+01 1.43360E+00
 1.40000E+01 1.66457E+00
 1.50000E+01 1.71615E+00
 1.60000E+01 1.65569E+00
 1.70000E+01 1.47001E+00
 1.80000E+01 1.20768E+00
 1.90000E+01 9.39200E-01
 2.00000E+01 7.15771E-01
 2.10000E+01 5.53229E-01
 2.20000E+01 4.48717E-01
 2.30000E+01 3.82207E-01
 2.40000E+01 3.41387E-01
 2.50000E+01 3.14654E-01
 2.60000E+01 2.95021E-01
 2.70000E+01 2.80749E-01
 2.80000E+01 2.68938E-01
 2.90000E+01 2.60524E-01
 3.00000E+01 2.50313E-01
