# n +  28Si   : (n,a)             Total
# Q-value    =-2.73244E+00
# E-threshold= 2.83095E+00
# # energies = 50
#    E         xs       gamma xs  xs/res.prod.xs
 1.000E-01 0.00000E+00 0.00000E+00 0.00000E+00
 2.000E-01 0.00000E+00 0.00000E+00 0.00000E+00
 4.000E-01 0.00000E+00 0.00000E+00 0.00000E+00
 6.000E-01 0.00000E+00 0.00000E+00 0.00000E+00
 8.000E-01 0.00000E+00 0.00000E+00 0.00000E+00
 1.000E+00 0.00000E+00 0.00000E+00 0.00000E+00
 1.200E+00 0.00000E+00 0.00000E+00 0.00000E+00
 1.400E+00 0.00000E+00 0.00000E+00 0.00000E+00
 1.600E+00 0.00000E+00 0.00000E+00 0.00000E+00
 1.800E+00 0.00000E+00 0.00000E+00 0.00000E+00
 2.000E+00 0.00000E+00 0.00000E+00 0.00000E+00
 2.200E+00 0.00000E+00 0.00000E+00 0.00000E+00
 2.400E+00 0.00000E+00 0.00000E+00 0.00000E+00
 2.600E+00 0.00000E+00 0.00000E+00 0.00000E+00
 2.800E+00 0.00000E+00 0.00000E+00 0.00000E+00
 3.000E+00 0.00000E+00 0.00000E+00 0.00000E+00
 3.200E+00 0.00000E+00 0.00000E+00 0.00000E+00
 3.400E+00 0.00000E+00 0.00000E+00 0.00000E+00
 3.600E+00 0.00000E+00 0.00000E+00 0.00000E+00
 3.800E+00 0.00000E+00 0.00000E+00 0.00000E+00
 4.000E+00 0.00000E+00 0.00000E+00 0.00000E+00
 4.200E+00 1.46646E-04 0.00000E+00 0.00000E+00
 4.400E+00 1.55640E-03 0.00000E+00 1.00000E+00
 4.600E+00 1.04232E-02 0.00000E+00 1.00000E+00
 4.800E+00 4.93870E-02 5.75965E-05 1.00000E+00
 5.000E+00 1.85662E-01 6.09187E-04 1.00000E+00
 5.200E+00 5.58096E-01 3.97591E-03 1.00000E+00
 5.400E+00 1.42483E+00 1.87967E-02 1.00000E+00
 5.600E+00 3.23269E+00 7.48842E-02 1.00000E+00
 5.800E+00 6.59046E+00 2.37473E-01 1.00000E+00
 6.000E+00 1.22192E+01 6.47872E-01 1.00000E+00
 6.200E+00 2.08153E+01 1.55083E+00 1.00000E+00
 6.400E+00 3.28656E+01 3.31668E+00 1.00000E+00
 6.600E+00 4.70638E+01 6.34716E+00 1.00000E+00
 6.800E+00 6.39400E+01 1.11332E+01 1.00000E+00
 7.000E+00 8.29628E+01 1.79072E+01 1.00000E+00
 7.200E+00 1.00764E+02 2.66907E+01 1.00000E+00
 7.400E+00 1.16820E+02 3.71261E+01 1.00000E+00
 7.600E+00 1.33566E+02 4.96309E+01 1.00000E+00
 7.800E+00 1.45042E+02 6.14647E+01 9.99999E-01
 8.000E+00 1.57855E+02 7.51508E+01 9.99999E-01
 8.500E+00 1.83136E+02 1.12716E+02 9.99998E-01
 9.000E+00 1.98405E+02 1.51344E+02 9.99996E-01
 9.500E+00 2.05962E+02 1.88888E+02 9.99993E-01
 1.000E+01 2.08526E+02 2.22967E+02 9.99989E-01
 1.200E+01 1.94333E+02 2.92167E+02 9.99953E-01
 1.400E+01 1.73144E+02 2.96438E+02 9.99881E-01
 1.600E+01 1.28479E+02 2.37300E+02 9.99739E-01
 1.800E+01 7.33101E+01 1.40847E+02 9.99389E-01
 2.000E+01 4.10479E+01 8.06216E+01 9.98747E-01
