# n +  28Si   : (n,a)             Total
# Q-value    =-2.73228E+00
# E-threshold= 2.83079E+00
# # energies = 50
#    E         xs       gamma xs  xs/res.prod.xs
 1.000E-01 0.00000E+00 0.00000E+00 0.00000E+00
 2.000E-01 0.00000E+00 0.00000E+00 0.00000E+00
 4.000E-01 0.00000E+00 0.00000E+00 0.00000E+00
 6.000E-01 0.00000E+00 0.00000E+00 0.00000E+00
 8.000E-01 0.00000E+00 0.00000E+00 0.00000E+00
 1.000E+00 0.00000E+00 0.00000E+00 0.00000E+00
 1.200E+00 0.00000E+00 0.00000E+00 0.00000E+00
 1.400E+00 0.00000E+00 0.00000E+00 0.00000E+00
 1.600E+00 0.00000E+00 0.00000E+00 0.00000E+00
 1.800E+00 0.00000E+00 0.00000E+00 0.00000E+00
 2.000E+00 0.00000E+00 0.00000E+00 0.00000E+00
 2.200E+00 0.00000E+00 0.00000E+00 0.00000E+00
 2.400E+00 0.00000E+00 0.00000E+00 0.00000E+00
 2.600E+00 0.00000E+00 0.00000E+00 0.00000E+00
 2.800E+00 0.00000E+00 0.00000E+00 0.00000E+00
 3.000E+00 0.00000E+00 0.00000E+00 0.00000E+00
 3.200E+00 0.00000E+00 0.00000E+00 0.00000E+00
 3.400E+00 0.00000E+00 0.00000E+00 0.00000E+00
 3.600E+00 0.00000E+00 0.00000E+00 0.00000E+00
 3.800E+00 0.00000E+00 0.00000E+00 0.00000E+00
 4.000E+00 0.00000E+00 0.00000E+00 0.00000E+00
 4.200E+00 1.47922E-04 0.00000E+00 0.00000E+00
 4.400E+00 1.56894E-03 0.00000E+00 1.00000E+00
 4.600E+00 1.05131E-02 0.00000E+00 1.00000E+00
 4.800E+00 4.98727E-02 5.80258E-05 1.00000E+00
 5.000E+00 1.86214E-01 6.12415E-04 1.00000E+00
 5.200E+00 5.58640E-01 4.00335E-03 1.00000E+00
 5.400E+00 1.42313E+00 1.88463E-02 1.00000E+00
 5.600E+00 3.22568E+00 7.48671E-02 1.00000E+00
 5.800E+00 6.57320E+00 2.37007E-01 1.00000E+00
 6.000E+00 1.21822E+01 6.45735E-01 1.00000E+00
 6.200E+00 2.07391E+01 1.54388E+00 1.00000E+00
 6.400E+00 3.27150E+01 3.29724E+00 1.00000E+00
 6.600E+00 4.68637E+01 6.30123E+00 1.00000E+00
 6.800E+00 6.34174E+01 1.10138E+01 1.00000E+00
 7.000E+00 8.20844E+01 1.76875E+01 1.00000E+00
 7.200E+00 9.94550E+01 2.62552E+01 1.00000E+00
 7.400E+00 1.14251E+02 3.62122E+01 1.00000E+00
 7.600E+00 1.30049E+02 4.81992E+01 9.99999E-01
 7.800E+00 1.41284E+02 5.97352E+01 9.99999E-01
 8.000E+00 1.53378E+02 7.28088E+01 9.99999E-01
 8.500E+00 1.77933E+02 1.09088E+02 9.99998E-01
 9.000E+00 1.92827E+02 1.46527E+02 9.99996E-01
 9.500E+00 2.00954E+02 1.83523E+02 9.99993E-01
 1.000E+01 2.04431E+02 2.17841E+02 9.99989E-01
 1.200E+01 1.93253E+02 2.90485E+02 9.99952E-01
 1.400E+01 1.74308E+02 2.98703E+02 9.99880E-01
 1.600E+01 1.31095E+02 2.42999E+02 9.99738E-01
 1.800E+01 7.60918E+01 1.47724E+02 9.99394E-01
 2.000E+01 4.25277E+01 8.46803E+01 9.98747E-01
