# n +  28Si   : (n,a)             Total
# Q-value    =-2.65366E+00
# E-threshold= 2.74933E+00
# # energies = 50
#    E         xs       gamma xs  xs/res.prod.xs
 1.000E-01 0.00000E+00 0.00000E+00 0.00000E+00
 2.000E-01 0.00000E+00 0.00000E+00 0.00000E+00
 4.000E-01 0.00000E+00 0.00000E+00 0.00000E+00
 6.000E-01 0.00000E+00 0.00000E+00 0.00000E+00
 8.000E-01 0.00000E+00 0.00000E+00 0.00000E+00
 1.000E+00 0.00000E+00 0.00000E+00 0.00000E+00
 1.200E+00 0.00000E+00 0.00000E+00 0.00000E+00
 1.400E+00 0.00000E+00 0.00000E+00 0.00000E+00
 1.600E+00 0.00000E+00 0.00000E+00 0.00000E+00
 1.800E+00 0.00000E+00 0.00000E+00 0.00000E+00
 2.000E+00 0.00000E+00 0.00000E+00 0.00000E+00
 2.200E+00 0.00000E+00 0.00000E+00 0.00000E+00
 2.400E+00 0.00000E+00 0.00000E+00 0.00000E+00
 2.600E+00 0.00000E+00 0.00000E+00 0.00000E+00
 2.800E+00 0.00000E+00 0.00000E+00 0.00000E+00
 3.000E+00 0.00000E+00 0.00000E+00 0.00000E+00
 3.200E+00 0.00000E+00 0.00000E+00 0.00000E+00
 3.400E+00 0.00000E+00 0.00000E+00 0.00000E+00
 3.600E+00 0.00000E+00 0.00000E+00 0.00000E+00
 3.800E+00 0.00000E+00 0.00000E+00 0.00000E+00
 4.000E+00 2.16692E-05 0.00000E+00 0.00000E+00
 4.200E+00 3.92736E-04 0.00000E+00 0.00000E+00
 4.400E+00 3.58744E-03 0.00000E+00 1.00000E+00
 4.600E+00 2.11580E-02 8.55044E-06 1.00000E+00
 4.800E+00 9.02391E-02 1.59562E-04 1.00000E+00
 5.000E+00 2.99703E-01 1.43211E-03 1.00000E+00
 5.200E+00 8.45915E-01 8.22648E-03 1.00000E+00
 5.400E+00 2.06048E+00 3.47777E-02 1.00000E+00
 5.600E+00 4.47310E+00 1.23825E-01 1.00000E+00
 5.800E+00 8.75960E+00 3.68718E-01 1.00000E+00
 6.000E+00 1.56551E+01 9.54125E-01 1.00000E+00
 6.200E+00 2.57879E+01 2.18351E+00 1.00000E+00
 6.400E+00 3.95030E+01 4.48749E+00 1.00000E+00
 6.600E+00 5.51369E+01 8.28022E+00 1.00000E+00
 6.800E+00 7.32133E+01 1.40410E+01 1.00000E+00
 7.000E+00 9.29571E+01 2.19233E+01 1.00000E+00
 7.200E+00 1.11159E+02 3.18060E+01 1.00000E+00
 7.400E+00 1.27369E+02 4.31920E+01 1.00000E+00
 7.600E+00 1.43400E+02 5.65490E+01 1.00000E+00
 7.800E+00 1.54564E+02 6.89934E+01 1.00000E+00
 8.000E+00 1.66839E+02 8.33215E+01 1.00000E+00
 8.500E+00 1.90956E+02 1.22088E+02 9.99999E-01
 9.000E+00 2.18669E+02 1.79585E+02 9.99999E-01
 9.500E+00 2.30776E+02 2.26365E+02 9.99999E-01
 1.000E+01 2.34762E+02 2.67322E+02 9.99998E-01
 1.200E+01 2.38001E+02 3.74304E+02 9.99993E-01
 1.400E+01 2.25525E+02 4.04913E+02 9.99984E-01
 1.600E+01 1.88461E+02 3.58344E+02 9.99971E-01
 1.800E+01 1.30989E+02 2.55813E+02 9.99942E-01
 2.000E+01 8.89259E+01 1.75657E+02 9.99882E-01
