# n +  28Si   : (n,p)             Total
# Q-value    =-3.85989E+00
# E-threshold= 3.99905E+00
# # energies = 50
#    E         xs       gamma xs  xs/res.prod.xs
 1.000E-01 0.00000E+00 0.00000E+00 0.00000E+00
 2.000E-01 0.00000E+00 0.00000E+00 0.00000E+00
 4.000E-01 0.00000E+00 0.00000E+00 0.00000E+00
 6.000E-01 0.00000E+00 0.00000E+00 0.00000E+00
 8.000E-01 0.00000E+00 0.00000E+00 0.00000E+00
 1.000E+00 0.00000E+00 0.00000E+00 0.00000E+00
 1.200E+00 0.00000E+00 0.00000E+00 0.00000E+00
 1.400E+00 0.00000E+00 0.00000E+00 0.00000E+00
 1.600E+00 0.00000E+00 0.00000E+00 0.00000E+00
 1.800E+00 0.00000E+00 0.00000E+00 0.00000E+00
 2.000E+00 0.00000E+00 0.00000E+00 0.00000E+00
 2.200E+00 0.00000E+00 0.00000E+00 0.00000E+00
 2.400E+00 0.00000E+00 0.00000E+00 0.00000E+00
 2.600E+00 0.00000E+00 0.00000E+00 0.00000E+00
 2.800E+00 0.00000E+00 0.00000E+00 0.00000E+00
 3.000E+00 0.00000E+00 0.00000E+00 0.00000E+00
 3.200E+00 0.00000E+00 0.00000E+00 0.00000E+00
 3.400E+00 0.00000E+00 0.00000E+00 0.00000E+00
 3.600E+00 0.00000E+00 0.00000E+00 0.00000E+00
 3.800E+00 0.00000E+00 0.00000E+00 0.00000E+00
 4.000E+00 0.00000E+00 0.00000E+00 0.00000E+00
 4.200E+00 0.00000E+00 0.00000E+00 0.00000E+00
 4.400E+00 2.26949E-03 8.94316E-04 1.00000E+00
 4.600E+00 9.02934E-02 3.83279E-02 1.00000E+00
 4.800E+00 8.14734E-01 3.73327E-01 1.00000E+00
 5.000E+00 3.37473E+00 1.65709E+00 1.00000E+00
 5.200E+00 9.60007E+00 4.86928E+00 1.00000E+00
 5.400E+00 2.10058E+01 1.07771E+01 1.00000E+00
 5.600E+00 3.86097E+01 1.99714E+01 1.00000E+00
 5.800E+00 6.22233E+01 3.25720E+01 1.00000E+00
 6.000E+00 9.05032E+01 4.84337E+01 1.00000E+00
 6.200E+00 1.21352E+02 6.73744E+01 1.00000E+00
 6.400E+00 1.52819E+02 8.95722E+01 1.00000E+00
 6.600E+00 1.79377E+02 1.13267E+02 1.00000E+00
 6.800E+00 2.01108E+02 1.38749E+02 1.00000E+00
 7.000E+00 2.22701E+02 1.68126E+02 1.00000E+00
 7.200E+00 2.38409E+02 1.97018E+02 1.00000E+00
 7.400E+00 2.50498E+02 2.25806E+02 9.99999E-01
 7.600E+00 2.65225E+02 2.58092E+02 9.99999E-01
 7.800E+00 2.73278E+02 2.83868E+02 9.99999E-01
 8.000E+00 2.81217E+02 3.08942E+02 9.99999E-01
 8.500E+00 3.01484E+02 3.71747E+02 9.99998E-01
 9.000E+00 3.15984E+02 4.25930E+02 9.99997E-01
 9.500E+00 3.29228E+02 4.74832E+02 9.99996E-01
 1.000E+01 3.39664E+02 5.17702E+02 9.99994E-01
 1.200E+01 3.44104E+02 6.21094E+02 9.99985E-01
 1.400E+01 3.15841E+02 6.43813E+02 9.99971E-01
 1.600E+01 1.98023E+02 4.19898E+02 9.99931E-01
 1.800E+01 1.07912E+02 2.31400E+02 9.99819E-01
 2.000E+01 6.08061E+01 1.30768E+02 9.99573E-01
