# n +  28Si   : (n,p)             Total
# Q-value    =-3.93858E+00
# E-threshold= 4.08058E+00
# # energies = 50
#    E         xs       gamma xs  xs/res.prod.xs
 1.000E-01 0.00000E+00 0.00000E+00 0.00000E+00
 2.000E-01 0.00000E+00 0.00000E+00 0.00000E+00
 4.000E-01 0.00000E+00 0.00000E+00 0.00000E+00
 6.000E-01 0.00000E+00 0.00000E+00 0.00000E+00
 8.000E-01 0.00000E+00 0.00000E+00 0.00000E+00
 1.000E+00 0.00000E+00 0.00000E+00 0.00000E+00
 1.200E+00 0.00000E+00 0.00000E+00 0.00000E+00
 1.400E+00 0.00000E+00 0.00000E+00 0.00000E+00
 1.600E+00 0.00000E+00 0.00000E+00 0.00000E+00
 1.800E+00 0.00000E+00 0.00000E+00 0.00000E+00
 2.000E+00 0.00000E+00 0.00000E+00 0.00000E+00
 2.200E+00 0.00000E+00 0.00000E+00 0.00000E+00
 2.400E+00 0.00000E+00 0.00000E+00 0.00000E+00
 2.600E+00 0.00000E+00 0.00000E+00 0.00000E+00
 2.800E+00 0.00000E+00 0.00000E+00 0.00000E+00
 3.000E+00 0.00000E+00 0.00000E+00 0.00000E+00
 3.200E+00 0.00000E+00 0.00000E+00 0.00000E+00
 3.400E+00 0.00000E+00 0.00000E+00 0.00000E+00
 3.600E+00 0.00000E+00 0.00000E+00 0.00000E+00
 3.800E+00 0.00000E+00 0.00000E+00 0.00000E+00
 4.000E+00 0.00000E+00 0.00000E+00 0.00000E+00
 4.200E+00 0.00000E+00 0.00000E+00 0.00000E+00
 4.400E+00 1.47888E-04 0.00000E+00 0.00000E+00
 4.600E+00 2.43395E-02 1.02014E-02 1.00000E+00
 4.800E+00 3.60850E-01 1.63069E-01 1.00000E+00
 5.000E+00 1.89325E+00 9.21781E-01 1.00000E+00
 5.200E+00 6.21226E+00 3.13674E+00 1.00000E+00
 5.400E+00 1.49329E+01 7.63836E+00 1.00000E+00
 5.600E+00 2.94344E+01 1.51752E+01 1.00000E+00
 5.800E+00 5.01051E+01 2.60707E+01 1.00000E+00
 6.000E+00 7.61419E+01 4.03017E+01 1.00000E+00
 6.200E+00 1.05784E+02 5.77156E+01 1.00000E+00
 6.400E+00 1.36931E+02 7.82913E+01 1.00000E+00
 6.600E+00 1.63657E+02 1.00126E+02 1.00000E+00
 6.800E+00 1.84912E+02 1.23118E+02 9.99999E-01
 7.000E+00 2.06299E+02 1.50140E+02 9.99999E-01
 7.200E+00 2.22522E+02 1.77368E+02 9.99999E-01
 7.400E+00 2.34011E+02 2.04192E+02 9.99998E-01
 7.600E+00 2.48337E+02 2.35003E+02 9.99998E-01
 7.800E+00 2.56150E+02 2.59925E+02 9.99997E-01
 8.000E+00 2.62922E+02 2.83436E+02 9.99996E-01
 8.500E+00 2.81917E+02 3.45706E+02 9.99992E-01
 9.000E+00 2.98684E+02 4.06592E+02 9.99988E-01
 9.500E+00 3.15213E+02 4.67390E+02 9.99982E-01
 1.000E+01 3.30557E+02 5.28106E+02 9.99974E-01
 1.200E+01 3.53366E+02 6.85590E+02 9.99926E-01
 1.400E+01 3.38147E+02 7.43691E+02 9.99840E-01
 1.600E+01 2.14427E+02 4.90881E+02 9.99596E-01
 1.800E+01 1.14420E+02 2.65595E+02 9.98998E-01
 2.000E+01 6.39179E+01 1.48879E+02 9.97977E-01
