# n +  28Si   : (n,p)             Total
# Q-value    =-3.93888E+00
# E-threshold= 4.08089E+00
# # energies = 50
#    E         xs       gamma xs  xs/res.prod.xs
 1.000E-01 0.00000E+00 0.00000E+00 0.00000E+00
 2.000E-01 0.00000E+00 0.00000E+00 0.00000E+00
 4.000E-01 0.00000E+00 0.00000E+00 0.00000E+00
 6.000E-01 0.00000E+00 0.00000E+00 0.00000E+00
 8.000E-01 0.00000E+00 0.00000E+00 0.00000E+00
 1.000E+00 0.00000E+00 0.00000E+00 0.00000E+00
 1.200E+00 0.00000E+00 0.00000E+00 0.00000E+00
 1.400E+00 0.00000E+00 0.00000E+00 0.00000E+00
 1.600E+00 0.00000E+00 0.00000E+00 0.00000E+00
 1.800E+00 0.00000E+00 0.00000E+00 0.00000E+00
 2.000E+00 0.00000E+00 0.00000E+00 0.00000E+00
 2.200E+00 0.00000E+00 0.00000E+00 0.00000E+00
 2.400E+00 0.00000E+00 0.00000E+00 0.00000E+00
 2.600E+00 0.00000E+00 0.00000E+00 0.00000E+00
 2.800E+00 0.00000E+00 0.00000E+00 0.00000E+00
 3.000E+00 0.00000E+00 0.00000E+00 0.00000E+00
 3.200E+00 0.00000E+00 0.00000E+00 0.00000E+00
 3.400E+00 0.00000E+00 0.00000E+00 0.00000E+00
 3.600E+00 0.00000E+00 0.00000E+00 0.00000E+00
 3.800E+00 0.00000E+00 0.00000E+00 0.00000E+00
 4.000E+00 0.00000E+00 0.00000E+00 0.00000E+00
 4.200E+00 0.00000E+00 0.00000E+00 0.00000E+00
 4.400E+00 1.44243E-04 0.00000E+00 0.00000E+00
 4.600E+00 2.40694E-02 1.01049E-02 1.00000E+00
 4.800E+00 3.58130E-01 1.61826E-01 1.00000E+00
 5.000E+00 1.90197E+00 9.24313E-01 1.00000E+00
 5.200E+00 6.27222E+00 3.15850E+00 1.00000E+00
 5.400E+00 1.51470E+01 7.73029E+00 1.00000E+00
 5.600E+00 2.98988E+01 1.53874E+01 1.00000E+00
 5.800E+00 5.08534E+01 2.64217E+01 1.00000E+00
 6.000E+00 7.71257E+01 4.07706E+01 1.00000E+00
 6.200E+00 1.06898E+02 5.82568E+01 1.00000E+00
 6.400E+00 1.38080E+02 7.88699E+01 1.00000E+00
 6.600E+00 1.64993E+02 1.00854E+02 1.00000E+00
 6.800E+00 1.87251E+02 1.24509E+02 1.00000E+00
 7.000E+00 2.09304E+02 1.52083E+02 9.99999E-01
 7.200E+00 2.25595E+02 1.79676E+02 9.99999E-01
 7.400E+00 2.38251E+02 2.07630E+02 9.99998E-01
 7.600E+00 2.53252E+02 2.39203E+02 9.99998E-01
 7.800E+00 2.61726E+02 2.64992E+02 9.99997E-01
 8.000E+00 2.69849E+02 2.90223E+02 9.99996E-01
 8.500E+00 2.90360E+02 3.55094E+02 9.99992E-01
 9.000E+00 3.08841E+02 4.19909E+02 9.99987E-01
 9.500E+00 3.24691E+02 4.81405E+02 9.99981E-01
 1.000E+01 3.36967E+02 5.36352E+02 9.99974E-01
 1.200E+01 3.55461E+02 6.88580E+02 9.99925E-01
 1.400E+01 3.36884E+02 7.41292E+02 9.99840E-01
 1.600E+01 2.17486E+02 4.99641E+02 9.99608E-01
 1.800E+01 1.18630E+02 2.76490E+02 9.99050E-01
 2.000E+01 6.58320E+01 1.53702E+02 9.98068E-01
