# n +  28Si   : (n,p)             Total
# Q-value    =-3.85989E+00
# E-threshold= 3.99905E+00
# # energies = 50
#    E         xs       gamma xs  xs/res.prod.xs
 1.000E-01 0.00000E+00 0.00000E+00 0.00000E+00
 2.000E-01 0.00000E+00 0.00000E+00 0.00000E+00
 4.000E-01 0.00000E+00 0.00000E+00 0.00000E+00
 6.000E-01 0.00000E+00 0.00000E+00 0.00000E+00
 8.000E-01 0.00000E+00 0.00000E+00 0.00000E+00
 1.000E+00 0.00000E+00 0.00000E+00 0.00000E+00
 1.200E+00 0.00000E+00 0.00000E+00 0.00000E+00
 1.400E+00 0.00000E+00 0.00000E+00 0.00000E+00
 1.600E+00 0.00000E+00 0.00000E+00 0.00000E+00
 1.800E+00 0.00000E+00 0.00000E+00 0.00000E+00
 2.000E+00 0.00000E+00 0.00000E+00 0.00000E+00
 2.200E+00 0.00000E+00 0.00000E+00 0.00000E+00
 2.400E+00 0.00000E+00 0.00000E+00 0.00000E+00
 2.600E+00 0.00000E+00 0.00000E+00 0.00000E+00
 2.800E+00 0.00000E+00 0.00000E+00 0.00000E+00
 3.000E+00 0.00000E+00 0.00000E+00 0.00000E+00
 3.200E+00 0.00000E+00 0.00000E+00 0.00000E+00
 3.400E+00 0.00000E+00 0.00000E+00 0.00000E+00
 3.600E+00 0.00000E+00 0.00000E+00 0.00000E+00
 3.800E+00 0.00000E+00 0.00000E+00 0.00000E+00
 4.000E+00 0.00000E+00 0.00000E+00 0.00000E+00
 4.200E+00 0.00000E+00 0.00000E+00 0.00000E+00
 4.400E+00 2.30576E-03 9.02439E-04 1.00000E+00
 4.600E+00 9.16465E-02 3.86584E-02 1.00000E+00
 4.800E+00 8.25354E-01 3.76049E-01 1.00000E+00
 5.000E+00 3.39172E+00 1.65761E+00 1.00000E+00
 5.200E+00 9.64064E+00 4.86728E+00 1.00000E+00
 5.400E+00 2.10768E+01 1.07656E+01 1.00000E+00
 5.600E+00 3.87194E+01 1.99419E+01 1.00000E+00
 5.800E+00 6.24019E+01 3.25284E+01 1.00000E+00
 6.000E+00 9.08377E+01 4.84164E+01 1.00000E+00
 6.200E+00 1.22021E+02 6.74912E+01 1.00000E+00
 6.400E+00 1.54112E+02 9.00286E+01 1.00000E+00
 6.600E+00 1.81498E+02 1.14299E+02 1.00000E+00
 6.800E+00 2.04354E+02 1.40723E+02 1.00000E+00
 7.000E+00 2.27470E+02 1.71517E+02 1.00000E+00
 7.200E+00 2.44715E+02 2.02117E+02 1.00000E+00
 7.400E+00 2.58327E+02 2.32892E+02 1.00000E+00
 7.600E+00 2.73399E+02 2.66264E+02 1.00000E+00
 7.800E+00 2.80674E+02 2.91957E+02 9.99999E-01
 8.000E+00 2.88259E+02 3.17304E+02 9.99999E-01
 8.500E+00 3.09475E+02 3.82646E+02 9.99999E-01
 9.000E+00 3.28146E+02 4.43111E+02 9.99998E-01
 9.500E+00 3.50172E+02 5.08192E+02 9.99997E-01
 1.000E+01 3.66136E+02 5.62455E+02 9.99996E-01
 1.200E+01 3.84691E+02 6.93787E+02 9.99990E-01
 1.400E+01 3.65753E+02 7.40230E+02 9.99979E-01
 1.600E+01 2.47163E+02 5.20835E+02 9.99950E-01
 1.800E+01 1.43575E+02 3.06769E+02 9.99864E-01
 2.000E+01 8.20838E+01 1.76421E+02 9.99646E-01
