# n +  28Si   : (n,p)             Total
# Q-value    =-3.93888E+00
# E-threshold= 4.08089E+00
# # energies = 50
#    E         xs       gamma xs  xs/res.prod.xs
 1.000E-01 0.00000E+00 0.00000E+00 0.00000E+00
 2.000E-01 0.00000E+00 0.00000E+00 0.00000E+00
 4.000E-01 0.00000E+00 0.00000E+00 0.00000E+00
 6.000E-01 0.00000E+00 0.00000E+00 0.00000E+00
 8.000E-01 0.00000E+00 0.00000E+00 0.00000E+00
 1.000E+00 0.00000E+00 0.00000E+00 0.00000E+00
 1.200E+00 0.00000E+00 0.00000E+00 0.00000E+00
 1.400E+00 0.00000E+00 0.00000E+00 0.00000E+00
 1.600E+00 0.00000E+00 0.00000E+00 0.00000E+00
 1.800E+00 0.00000E+00 0.00000E+00 0.00000E+00
 2.000E+00 0.00000E+00 0.00000E+00 0.00000E+00
 2.200E+00 0.00000E+00 0.00000E+00 0.00000E+00
 2.400E+00 0.00000E+00 0.00000E+00 0.00000E+00
 2.600E+00 0.00000E+00 0.00000E+00 0.00000E+00
 2.800E+00 0.00000E+00 0.00000E+00 0.00000E+00
 3.000E+00 0.00000E+00 0.00000E+00 0.00000E+00
 3.200E+00 0.00000E+00 0.00000E+00 0.00000E+00
 3.400E+00 0.00000E+00 0.00000E+00 0.00000E+00
 3.600E+00 0.00000E+00 0.00000E+00 0.00000E+00
 3.800E+00 0.00000E+00 0.00000E+00 0.00000E+00
 4.000E+00 0.00000E+00 0.00000E+00 0.00000E+00
 4.200E+00 0.00000E+00 0.00000E+00 0.00000E+00
 4.400E+00 1.44051E-04 0.00000E+00 0.00000E+00
 4.600E+00 2.40401E-02 1.00957E-02 1.00000E+00
 4.800E+00 3.57783E-01 1.61677E-01 1.00000E+00
 5.000E+00 1.90144E+00 9.23888E-01 1.00000E+00
 5.200E+00 6.27183E+00 3.15759E+00 1.00000E+00
 5.400E+00 1.51491E+01 7.72987E+00 1.00000E+00
 5.600E+00 2.99044E+01 1.53877E+01 1.00000E+00
 5.800E+00 5.08602E+01 2.64215E+01 1.00000E+00
 6.000E+00 7.71280E+01 4.07664E+01 1.00000E+00
 6.200E+00 1.06889E+02 5.82443E+01 1.00000E+00
 6.400E+00 1.38053E+02 7.88450E+01 1.00000E+00
 6.600E+00 1.64971E+02 1.00828E+02 9.99999E-01
 6.800E+00 1.87271E+02 1.24504E+02 9.99999E-01
 7.000E+00 2.09345E+02 1.52089E+02 9.99999E-01
 7.200E+00 2.25645E+02 1.79695E+02 9.99998E-01
 7.400E+00 2.38359E+02 2.07687E+02 9.99997E-01
 7.600E+00 2.53387E+02 2.39240E+02 9.99996E-01
 7.800E+00 2.61912E+02 2.64940E+02 9.99994E-01
 8.000E+00 2.70100E+02 2.89891E+02 9.99993E-01
 8.500E+00 2.90685E+02 3.52105E+02 9.99986E-01
 9.000E+00 3.07447E+02 4.08026E+02 9.99977E-01
 9.500E+00 3.21962E+02 4.58137E+02 9.99965E-01
 1.000E+01 3.32467E+02 5.00633E+02 9.99950E-01
 1.200E+01 3.43099E+02 6.13753E+02 9.99846E-01
 1.400E+01 3.16413E+02 6.41161E+02 9.99654E-01
 1.600E+01 2.00619E+02 4.25289E+02 9.99111E-01
 1.800E+01 1.07970E+02 2.32614E+02 9.97708E-01
 2.000E+01 6.05573E+01 1.30936E+02 9.94964E-01
