# n +  28Si   : (n,p)             Total
# Q-value    =-3.93888E+00
# E-threshold= 4.08089E+00
# # energies = 50
#    E         xs       gamma xs  xs/res.prod.xs
 1.000E-01 0.00000E+00 0.00000E+00 0.00000E+00
 2.000E-01 0.00000E+00 0.00000E+00 0.00000E+00
 4.000E-01 0.00000E+00 0.00000E+00 0.00000E+00
 6.000E-01 0.00000E+00 0.00000E+00 0.00000E+00
 8.000E-01 0.00000E+00 0.00000E+00 0.00000E+00
 1.000E+00 0.00000E+00 0.00000E+00 0.00000E+00
 1.200E+00 0.00000E+00 0.00000E+00 0.00000E+00
 1.400E+00 0.00000E+00 0.00000E+00 0.00000E+00
 1.600E+00 0.00000E+00 0.00000E+00 0.00000E+00
 1.800E+00 0.00000E+00 0.00000E+00 0.00000E+00
 2.000E+00 0.00000E+00 0.00000E+00 0.00000E+00
 2.200E+00 0.00000E+00 0.00000E+00 0.00000E+00
 2.400E+00 0.00000E+00 0.00000E+00 0.00000E+00
 2.600E+00 0.00000E+00 0.00000E+00 0.00000E+00
 2.800E+00 0.00000E+00 0.00000E+00 0.00000E+00
 3.000E+00 0.00000E+00 0.00000E+00 0.00000E+00
 3.200E+00 0.00000E+00 0.00000E+00 0.00000E+00
 3.400E+00 0.00000E+00 0.00000E+00 0.00000E+00
 3.600E+00 0.00000E+00 0.00000E+00 0.00000E+00
 3.800E+00 0.00000E+00 0.00000E+00 0.00000E+00
 4.000E+00 0.00000E+00 0.00000E+00 0.00000E+00
 4.200E+00 0.00000E+00 0.00000E+00 0.00000E+00
 4.400E+00 1.44847E-04 0.00000E+00 0.00000E+00
 4.600E+00 2.41764E-02 1.01478E-02 1.00000E+00
 4.800E+00 3.59502E-01 1.62436E-01 1.00000E+00
 5.000E+00 1.88990E+00 9.19969E-01 1.00000E+00
 5.200E+00 6.20796E+00 3.13374E+00 1.00000E+00
 5.400E+00 1.49355E+01 7.63800E+00 1.00000E+00
 5.600E+00 2.94520E+01 1.51819E+01 1.00000E+00
 5.800E+00 5.01406E+01 2.60860E+01 1.00000E+00
 6.000E+00 7.61911E+01 4.03234E+01 1.00000E+00
 6.200E+00 1.05837E+02 5.77379E+01 1.00000E+00
 6.400E+00 1.36983E+02 7.83119E+01 1.00000E+00
 6.600E+00 1.63723E+02 1.00154E+02 1.00000E+00
 6.800E+00 1.85086E+02 1.23212E+02 1.00000E+00
 7.000E+00 2.06552E+02 1.50292E+02 9.99999E-01
 7.200E+00 2.22801E+02 1.77564E+02 9.99999E-01
 7.400E+00 2.34430E+02 2.04519E+02 9.99998E-01
 7.600E+00 2.48839E+02 2.35421E+02 9.99998E-01
 7.800E+00 2.56725E+02 2.60437E+02 9.99997E-01
 8.000E+00 2.63648E+02 2.84140E+02 9.99996E-01
 8.500E+00 2.82819E+02 3.46704E+02 9.99992E-01
 9.000E+00 3.00564E+02 4.09681E+02 9.99988E-01
 9.500E+00 3.16123E+02 4.69808E+02 9.99982E-01
 1.000E+01 3.28215E+02 5.23338E+02 9.99974E-01
 1.200E+01 3.49131E+02 6.76663E+02 9.99926E-01
 1.400E+01 3.32872E+02 7.32444E+02 9.99841E-01
 1.600E+01 2.15170E+02 4.94326E+02 9.99609E-01
 1.800E+01 1.17420E+02 2.73730E+02 9.99051E-01
 2.000E+01 6.53302E+01 1.52571E+02 9.98071E-01
