# n +  28Si   : (n,n')            Total
# Q-value    = 0.00000E+00
# E-threshold= 1.84317E+00
# # energies = 50
#    E         xs       gamma xs  xs/res.prod.xs
 1.000E-01 0.00000E+00 0.00000E+00 0.00000E+00
 2.000E-01 0.00000E+00 0.00000E+00 0.00000E+00
 4.000E-01 0.00000E+00 0.00000E+00 0.00000E+00
 6.000E-01 0.00000E+00 0.00000E+00 0.00000E+00
 8.000E-01 0.00000E+00 0.00000E+00 0.00000E+00
 1.000E+00 0.00000E+00 0.00000E+00 0.00000E+00
 1.200E+00 0.00000E+00 0.00000E+00 0.00000E+00
 1.400E+00 0.00000E+00 0.00000E+00 0.00000E+00
 1.600E+00 0.00000E+00 0.00000E+00 0.00000E+00
 1.800E+00 0.00000E+00 0.00000E+00 0.00000E+00
 2.000E+00 2.76155E+02 2.76155E+02 9.99991E-01
 2.200E+00 4.11926E+02 4.11926E+02 9.99994E-01
 2.400E+00 4.90061E+02 4.90061E+02 9.99994E-01
 2.600E+00 5.42462E+02 5.42462E+02 9.99992E-01
 2.800E+00 5.80989E+02 5.80989E+02 9.99991E-01
 3.000E+00 6.11190E+02 6.11190E+02 9.99990E-01
 3.200E+00 6.27596E+02 6.27596E+02 9.99988E-01
 3.400E+00 6.48728E+02 6.48728E+02 9.99985E-01
 3.600E+00 6.67301E+02 6.67301E+02 9.99983E-01
 3.800E+00 6.83324E+02 6.83324E+02 9.99979E-01
 4.000E+00 6.96869E+02 6.96869E+02 9.99976E-01
 4.200E+00 7.09141E+02 7.09141E+02 9.99971E-01
 4.400E+00 7.20380E+02 7.20380E+02 9.99966E-01
 4.600E+00 7.30601E+02 7.30601E+02 9.99960E-01
 4.800E+00 7.42116E+02 7.51260E+02 9.99955E-01
 5.000E+00 7.67425E+02 8.23602E+02 9.99952E-01
 5.200E+00 7.89551E+02 8.84087E+02 9.99949E-01
 5.400E+00 8.09769E+02 9.45854E+02 9.99945E-01
 5.600E+00 8.16865E+02 9.79434E+02 9.99939E-01
 5.800E+00 8.13985E+02 9.93989E+02 9.99933E-01
 6.000E+00 8.03324E+02 9.95131E+02 9.99927E-01
 6.200E+00 7.86685E+02 9.86481E+02 9.99917E-01
 6.400E+00 7.65553E+02 9.70535E+02 9.99909E-01
 6.600E+00 7.53247E+02 9.85592E+02 9.99904E-01
 6.800E+00 7.41535E+02 1.00173E+03 9.99900E-01
 7.000E+00 7.25508E+02 1.00404E+03 9.99891E-01
 7.200E+00 7.18241E+02 1.01651E+03 9.99889E-01
 7.400E+00 7.15356E+02 1.02937E+03 9.99889E-01
 7.600E+00 7.03352E+02 1.02384E+03 9.99886E-01
 7.800E+00 7.03908E+02 1.03082E+03 9.99885E-01
 8.000E+00 6.97908E+02 1.02484E+03 9.99882E-01
 8.500E+00 6.78014E+02 1.01851E+03 9.99875E-01
 9.000E+00 6.52258E+02 1.01246E+03 9.99860E-01
 9.500E+00 6.34924E+02 1.01998E+03 9.99852E-01
 1.000E+01 6.22019E+02 1.03547E+03 9.99840E-01
 1.200E+01 5.82479E+02 1.09252E+03 9.99776E-01
 1.400E+01 4.71541E+02 9.21581E+02 9.99635E-01
 1.600E+01 3.34966E+02 6.42780E+02 9.99443E-01
 1.800E+01 2.53435E+02 4.71498E+02 9.99223E-01
 2.000E+01 2.08155E+02 3.75840E+02 9.98833E-01
