# n +  28Si   : (n,n')            Total
# Q-value    = 0.00000E+00
# E-threshold= 1.84317E+00
# # energies = 50
#    E         xs       gamma xs  xs/res.prod.xs
 1.000E-01 0.00000E+00 0.00000E+00 0.00000E+00
 2.000E-01 0.00000E+00 0.00000E+00 0.00000E+00
 4.000E-01 0.00000E+00 0.00000E+00 0.00000E+00
 6.000E-01 0.00000E+00 0.00000E+00 0.00000E+00
 8.000E-01 0.00000E+00 0.00000E+00 0.00000E+00
 1.000E+00 0.00000E+00 0.00000E+00 0.00000E+00
 1.200E+00 0.00000E+00 0.00000E+00 0.00000E+00
 1.400E+00 0.00000E+00 0.00000E+00 0.00000E+00
 1.600E+00 0.00000E+00 0.00000E+00 0.00000E+00
 1.800E+00 0.00000E+00 0.00000E+00 0.00000E+00
 2.000E+00 2.75742E+02 2.75742E+02 9.99987E-01
 2.200E+00 4.11518E+02 4.11518E+02 9.99990E-01
 2.400E+00 4.89743E+02 4.89743E+02 9.99989E-01
 2.600E+00 5.42218E+02 5.42218E+02 9.99988E-01
 2.800E+00 5.80801E+02 5.80801E+02 9.99985E-01
 3.000E+00 6.11051E+02 6.11051E+02 9.99981E-01
 3.200E+00 6.27400E+02 6.27400E+02 9.99978E-01
 3.400E+00 6.48596E+02 6.48596E+02 9.99972E-01
 3.600E+00 6.67240E+02 6.67240E+02 9.99966E-01
 3.800E+00 6.83345E+02 6.83345E+02 9.99958E-01
 4.000E+00 6.96965E+02 6.96965E+02 9.99948E-01
 4.200E+00 7.09301E+02 7.09301E+02 9.99938E-01
 4.400E+00 7.20593E+02 7.20593E+02 9.99924E-01
 4.600E+00 7.30893E+02 7.30893E+02 9.99909E-01
 4.800E+00 7.42661E+02 7.51803E+02 9.99896E-01
 5.000E+00 7.68626E+02 8.24828E+02 9.99884E-01
 5.200E+00 7.92012E+02 8.86806E+02 9.99872E-01
 5.400E+00 8.14071E+02 9.50885E+02 9.99858E-01
 5.600E+00 8.23443E+02 9.87437E+02 9.99840E-01
 5.800E+00 8.22968E+02 1.00520E+03 9.99819E-01
 6.000E+00 8.14536E+02 1.00937E+03 9.99793E-01
 6.200E+00 7.99716E+02 1.00325E+03 9.99764E-01
 6.400E+00 7.79978E+02 9.89309E+02 9.99732E-01
 6.600E+00 7.68668E+02 1.00636E+03 9.99710E-01
 6.800E+00 7.57689E+02 1.02427E+03 9.99682E-01
 7.000E+00 7.42098E+02 1.02779E+03 9.99654E-01
 7.200E+00 7.35093E+02 1.04114E+03 9.99638E-01
 7.400E+00 7.32246E+02 1.05452E+03 9.99629E-01
 7.600E+00 7.19775E+02 1.04865E+03 9.99602E-01
 7.800E+00 7.20228E+02 1.05572E+03 9.99597E-01
 8.000E+00 7.13973E+02 1.04949E+03 9.99580E-01
 8.500E+00 6.93555E+02 1.04312E+03 9.99523E-01
 9.000E+00 6.72453E+02 1.04577E+03 9.99423E-01
 9.500E+00 6.55410E+02 1.05518E+03 9.99364E-01
 1.000E+01 6.40134E+02 1.06790E+03 9.99296E-01
 1.200E+01 5.97247E+02 1.12333E+03 9.98955E-01
 1.400E+01 4.87283E+02 9.59766E+02 9.98273E-01
 1.600E+01 3.46723E+02 6.72641E+02 9.97142E-01
 1.800E+01 2.60509E+02 4.90390E+02 9.96088E-01
 2.000E+01 2.13226E+02 3.89706E+02 9.95461E-01
