# n +  28Si   : (n,n')            Total
# Q-value    = 0.00000E+00
# E-threshold= 1.84317E+00
# # energies = 50
#    E         xs       gamma xs  xs/res.prod.xs
 1.000E-01 0.00000E+00 0.00000E+00 0.00000E+00
 2.000E-01 0.00000E+00 0.00000E+00 0.00000E+00
 4.000E-01 0.00000E+00 0.00000E+00 0.00000E+00
 6.000E-01 0.00000E+00 0.00000E+00 0.00000E+00
 8.000E-01 0.00000E+00 0.00000E+00 0.00000E+00
 1.000E+00 0.00000E+00 0.00000E+00 0.00000E+00
 1.200E+00 0.00000E+00 0.00000E+00 0.00000E+00
 1.400E+00 0.00000E+00 0.00000E+00 0.00000E+00
 1.600E+00 0.00000E+00 0.00000E+00 0.00000E+00
 1.800E+00 0.00000E+00 0.00000E+00 0.00000E+00
 2.000E+00 2.76094E+02 2.76094E+02 9.99992E-01
 2.200E+00 4.12138E+02 4.12138E+02 9.99994E-01
 2.400E+00 4.90144E+02 4.90144E+02 9.99994E-01
 2.600E+00 5.42277E+02 5.42277E+02 9.99994E-01
 2.800E+00 5.80521E+02 5.80521E+02 9.99992E-01
 3.000E+00 6.10473E+02 6.10473E+02 9.99991E-01
 3.200E+00 6.26678E+02 6.26678E+02 9.99989E-01
 3.400E+00 6.47668E+02 6.47668E+02 9.99986E-01
 3.600E+00 6.66144E+02 6.66144E+02 9.99983E-01
 3.800E+00 6.82115E+02 6.82115E+02 9.99980E-01
 4.000E+00 6.95636E+02 6.95636E+02 9.99975E-01
 4.200E+00 7.07899E+02 7.07899E+02 9.99971E-01
 4.400E+00 7.19143E+02 7.19143E+02 9.99965E-01
 4.600E+00 7.29415E+02 7.29415E+02 9.99958E-01
 4.800E+00 7.41182E+02 7.50292E+02 9.99953E-01
 5.000E+00 7.67251E+02 8.23738E+02 9.99949E-01
 5.200E+00 7.90649E+02 8.85840E+02 9.99944E-01
 5.400E+00 8.12743E+02 9.50088E+02 9.99938E-01
 5.600E+00 8.22070E+02 9.86568E+02 9.99931E-01
 5.800E+00 8.21495E+02 1.00411E+03 9.99923E-01
 6.000E+00 8.12935E+02 1.00798E+03 9.99912E-01
 6.200E+00 7.97969E+02 1.00154E+03 9.99900E-01
 6.400E+00 7.78077E+02 9.87269E+02 9.99888E-01
 6.600E+00 7.66637E+02 1.00408E+03 9.99880E-01
 6.800E+00 7.55614E+02 1.02201E+03 9.99869E-01
 7.000E+00 7.39933E+02 1.02538E+03 9.99858E-01
 7.200E+00 7.32817E+02 1.03852E+03 9.99853E-01
 7.400E+00 7.29982E+02 1.05185E+03 9.99850E-01
 7.600E+00 7.17457E+02 1.04583E+03 9.99840E-01
 7.800E+00 7.17846E+02 1.05272E+03 9.99839E-01
 8.000E+00 7.11597E+02 1.04639E+03 9.99834E-01
 8.500E+00 6.91098E+02 1.03983E+03 9.99813E-01
 9.000E+00 6.73205E+02 1.04784E+03 9.99789E-01
 9.500E+00 6.58269E+02 1.06076E+03 9.99769E-01
 1.000E+01 6.45559E+02 1.07670E+03 9.99749E-01
 1.200E+01 6.11316E+02 1.14484E+03 9.99653E-01
 1.400E+01 4.80626E+02 9.34653E+02 9.99451E-01
 1.600E+01 3.36926E+02 6.43479E+02 9.99086E-01
 1.800E+01 2.50326E+02 4.62216E+02 9.98631E-01
 2.000E+01 2.03454E+02 3.63834E+02 9.98156E-01
