# n +  28Si   : (n,n')            Total
# Q-value    = 0.00000E+00
# E-threshold= 1.84317E+00
# # energies = 50
#    E         xs       gamma xs  xs/res.prod.xs
 1.000E-01 0.00000E+00 0.00000E+00 0.00000E+00
 2.000E-01 0.00000E+00 0.00000E+00 0.00000E+00
 4.000E-01 0.00000E+00 0.00000E+00 0.00000E+00
 6.000E-01 0.00000E+00 0.00000E+00 0.00000E+00
 8.000E-01 0.00000E+00 0.00000E+00 0.00000E+00
 1.000E+00 0.00000E+00 0.00000E+00 0.00000E+00
 1.200E+00 0.00000E+00 0.00000E+00 0.00000E+00
 1.400E+00 0.00000E+00 0.00000E+00 0.00000E+00
 1.600E+00 0.00000E+00 0.00000E+00 0.00000E+00
 1.800E+00 0.00000E+00 0.00000E+00 0.00000E+00
 2.000E+00 2.77378E+02 2.77378E+02 9.99992E-01
 2.200E+00 4.18423E+02 4.18423E+02 9.99995E-01
 2.400E+00 4.92312E+02 4.92312E+02 9.99994E-01
 2.600E+00 5.37968E+02 5.37968E+02 9.99994E-01
 2.800E+00 5.69815E+02 5.69815E+02 9.99992E-01
 3.000E+00 5.94201E+02 5.94201E+02 9.99990E-01
 3.200E+00 6.09210E+02 6.09210E+02 9.99989E-01
 3.400E+00 6.26392E+02 6.26392E+02 9.99986E-01
 3.600E+00 6.41715E+02 6.41715E+02 9.99983E-01
 3.800E+00 6.55131E+02 6.55131E+02 9.99979E-01
 4.000E+00 6.66508E+02 6.66508E+02 9.99974E-01
 4.200E+00 6.76919E+02 6.76919E+02 9.99969E-01
 4.400E+00 6.86571E+02 6.86571E+02 9.99963E-01
 4.600E+00 6.95464E+02 6.95464E+02 9.99956E-01
 4.800E+00 7.06136E+02 7.14160E+02 9.99951E-01
 5.000E+00 7.33780E+02 7.94611E+02 9.99946E-01
 5.200E+00 7.56166E+02 8.56950E+02 9.99942E-01
 5.400E+00 7.77952E+02 9.22931E+02 9.99936E-01
 5.600E+00 7.85981E+02 9.57781E+02 9.99928E-01
 5.800E+00 7.83342E+02 9.71248E+02 9.99920E-01
 6.000E+00 7.72345E+02 9.69932E+02 9.99908E-01
 6.200E+00 7.54787E+02 9.57902E+02 9.99895E-01
 6.400E+00 7.32320E+02 9.38101E+02 9.99882E-01
 6.600E+00 7.18295E+02 9.48907E+02 9.99872E-01
 6.800E+00 7.06794E+02 9.67329E+02 9.99861E-01
 7.000E+00 6.89830E+02 9.68393E+02 9.99849E-01
 7.200E+00 6.80879E+02 9.77773E+02 9.99844E-01
 7.400E+00 6.78950E+02 9.91390E+02 9.99842E-01
 7.600E+00 6.66159E+02 9.83713E+02 9.99832E-01
 7.800E+00 6.65165E+02 9.87177E+02 9.99830E-01
 8.000E+00 6.59444E+02 9.79763E+02 9.99825E-01
 8.500E+00 6.38016E+02 9.69978E+02 9.99802E-01
 9.000E+00 6.20203E+02 9.78506E+02 9.99777E-01
 9.500E+00 6.06641E+02 9.93315E+02 9.99756E-01
 1.000E+01 5.96181E+02 1.01355E+03 9.99735E-01
 1.200E+01 5.69743E+02 1.09619E+03 9.99634E-01
 1.400E+01 4.37233E+02 8.77890E+02 9.99404E-01
 1.600E+01 2.96452E+02 5.89998E+02 9.98973E-01
 1.800E+01 2.12833E+02 4.13365E+02 9.98409E-01
 2.000E+01 1.68429E+02 3.19006E+02 9.97799E-01
