# n +  28Si   : (n,n')            Total
# Q-value    = 0.00000E+00
# E-threshold= 1.84317E+00
# # energies = 50
#    E         xs       gamma xs  xs/res.prod.xs
 1.000E-01 0.00000E+00 0.00000E+00 0.00000E+00
 2.000E-01 0.00000E+00 0.00000E+00 0.00000E+00
 4.000E-01 0.00000E+00 0.00000E+00 0.00000E+00
 6.000E-01 0.00000E+00 0.00000E+00 0.00000E+00
 8.000E-01 0.00000E+00 0.00000E+00 0.00000E+00
 1.000E+00 0.00000E+00 0.00000E+00 0.00000E+00
 1.200E+00 0.00000E+00 0.00000E+00 0.00000E+00
 1.400E+00 0.00000E+00 0.00000E+00 0.00000E+00
 1.600E+00 0.00000E+00 0.00000E+00 0.00000E+00
 1.800E+00 0.00000E+00 0.00000E+00 0.00000E+00
 2.000E+00 2.76158E+02 2.76158E+02 9.99992E-01
 2.200E+00 4.11930E+02 4.11930E+02 9.99995E-01
 2.400E+00 4.90065E+02 4.90065E+02 9.99994E-01
 2.600E+00 5.42466E+02 5.42466E+02 9.99994E-01
 2.800E+00 5.80991E+02 5.80991E+02 9.99992E-01
 3.000E+00 6.11193E+02 6.11193E+02 9.99992E-01
 3.200E+00 6.35992E+02 6.35992E+02 9.99990E-01
 3.400E+00 6.57053E+02 6.57053E+02 9.99988E-01
 3.600E+00 6.75405E+02 6.75405E+02 9.99986E-01
 3.800E+00 6.91048E+02 6.91048E+02 9.99983E-01
 4.000E+00 7.04056E+02 7.04056E+02 9.99980E-01
 4.200E+00 7.15668E+02 7.15668E+02 9.99976E-01
 4.400E+00 7.26140E+02 7.26140E+02 9.99972E-01
 4.600E+00 7.35504E+02 7.35504E+02 9.99967E-01
 4.800E+00 7.46602E+02 7.55684E+02 9.99964E-01
 5.000E+00 7.73199E+02 8.30570E+02 9.99961E-01
 5.200E+00 7.94605E+02 8.91091E+02 9.99959E-01
 5.400E+00 8.13878E+02 9.51915E+02 9.99957E-01
 5.600E+00 8.20194E+02 9.84562E+02 9.99952E-01
 5.800E+00 8.16943E+02 9.98620E+02 9.99947E-01
 6.000E+00 8.06519E+02 1.00003E+03 9.99942E-01
 6.200E+00 7.90866E+02 9.92637E+02 9.99935E-01
 6.400E+00 7.71506E+02 9.79039E+02 9.99928E-01
 6.600E+00 7.61593E+02 9.97823E+02 9.99925E-01
 6.800E+00 7.52773E+02 1.01849E+03 9.99922E-01
 7.000E+00 7.39965E+02 1.02591E+03 9.99915E-01
 7.200E+00 7.35838E+02 1.04345E+03 9.99913E-01
 7.400E+00 7.35979E+02 1.06128E+03 9.99914E-01
 7.600E+00 7.22764E+02 1.05431E+03 9.99911E-01
 7.800E+00 7.20877E+02 1.05788E+03 9.99911E-01
 8.000E+00 7.13003E+02 1.04931E+03 9.99909E-01
 8.500E+00 6.90976E+02 1.04057E+03 9.99905E-01
 9.000E+00 6.71890E+02 1.04676E+03 9.99898E-01
 9.500E+00 6.46818E+02 1.03746E+03 9.99886E-01
 1.000E+01 6.26670E+02 1.03706E+03 9.99874E-01
 1.200E+01 5.87911E+02 1.07993E+03 9.99819E-01
 1.400E+01 4.85578E+02 9.25235E+02 9.99691E-01
 1.600E+01 3.51076E+02 6.57882E+02 9.99498E-01
 1.800E+01 2.60646E+02 4.72324E+02 9.99254E-01
 2.000E+01 2.07272E+02 3.62155E+02 9.98853E-01
