# n +  28Si   : (n,n')            Total
# Q-value    = 0.00000E+00
# E-threshold= 1.84317E+00
# # energies =    50
#     E          xs       gamma xs  xs/res.prod.xs
 1.00000E-01 0.00000E+00 0.00000E+00 0.00000E+00
 2.00000E-01 0.00000E+00 0.00000E+00 0.00000E+00
 4.00000E-01 0.00000E+00 0.00000E+00 0.00000E+00
 6.00000E-01 0.00000E+00 0.00000E+00 0.00000E+00
 8.00000E-01 0.00000E+00 0.00000E+00 0.00000E+00
 1.00000E+00 0.00000E+00 0.00000E+00 0.00000E+00
 1.20000E+00 0.00000E+00 0.00000E+00 0.00000E+00
 1.40000E+00 0.00000E+00 0.00000E+00 0.00000E+00
 1.60000E+00 0.00000E+00 0.00000E+00 0.00000E+00
 1.80000E+00 0.00000E+00 0.00000E+00 0.00000E+00
 2.00000E+00 2.77617E+02 2.77617E+02 9.99991E-01
 2.20000E+00 4.19193E+02 4.19193E+02 9.99994E-01
 2.40000E+00 4.92462E+02 4.92462E+02 9.99993E-01
 2.60000E+00 5.37220E+02 5.37220E+02 9.99992E-01
 2.80000E+00 5.68202E+02 5.68202E+02 9.99991E-01
 3.00000E+00 5.91847E+02 5.91847E+02 9.99989E-01
 3.20000E+00 6.06696E+02 6.06696E+02 9.99986E-01
 3.40000E+00 6.23395E+02 6.23395E+02 9.99983E-01
 3.60000E+00 6.38322E+02 6.38322E+02 9.99980E-01
 3.80000E+00 6.51425E+02 6.51425E+02 9.99975E-01
 4.00000E+00 6.62558E+02 6.62558E+02 9.99969E-01
 4.20000E+00 6.72761E+02 6.72761E+02 9.99964E-01
 4.40000E+00 6.82234E+02 6.82234E+02 9.99955E-01
 4.60000E+00 6.90969E+02 6.90969E+02 9.99947E-01
 4.80000E+00 7.01510E+02 7.09424E+02 9.99938E-01
 5.00000E+00 7.29394E+02 7.90818E+02 9.99934E-01
 5.20000E+00 7.51698E+02 8.53289E+02 9.99928E-01
 5.40000E+00 7.73456E+02 9.19509E+02 9.99921E-01
 5.60000E+00 7.81348E+02 9.54201E+02 9.99910E-01
 5.80000E+00 7.78477E+02 9.67202E+02 9.99898E-01
 6.00000E+00 7.67201E+02 9.65272E+02 9.99885E-01
 6.20000E+00 7.49345E+02 9.52577E+02 9.99867E-01
 6.40000E+00 7.26586E+02 9.32120E+02 9.99848E-01
 6.60000E+00 7.12266E+02 9.42217E+02 9.99834E-01
 6.80000E+00 7.00731E+02 9.60722E+02 9.99822E-01
 7.00000E+00 6.83645E+02 9.61552E+02 9.99804E-01
 7.20000E+00 6.74520E+02 9.70548E+02 9.99794E-01
 7.40000E+00 6.72733E+02 9.84252E+02 9.99791E-01
 7.60000E+00 6.59931E+02 9.76396E+02 9.99780E-01
 7.80000E+00 6.58778E+02 9.79438E+02 9.99777E-01
 8.00000E+00 6.53120E+02 9.71870E+02 9.99767E-01
 8.50000E+00 6.31560E+02 9.61620E+02 9.99735E-01
 9.00000E+00 6.14335E+02 9.71142E+02 9.99707E-01
 9.50000E+00 5.98987E+02 9.80642E+02 9.99675E-01
 1.00000E+01 5.84628E+02 9.90810E+02 9.99632E-01
 1.20000E+01 5.55036E+02 1.05260E+03 9.99480E-01
 1.40000E+01 4.11728E+02 8.15308E+02 9.99112E-01
 1.60000E+01 2.64447E+02 5.16020E+02 9.98398E-01
 1.80000E+01 1.82100E+02 3.43944E+02 9.97490E-01
 2.00000E+01 1.40039E+02 2.55052E+02 9.96590E-01
