# n +  28Si   : (n,n')            Total
# Q-value    = 0.00000E+00
# E-threshold= 1.84317E+00
# # energies =    50
#     E          xs       gamma xs  xs/res.prod.xs
 1.00000E-01 0.00000E+00 0.00000E+00 0.00000E+00
 2.00000E-01 0.00000E+00 0.00000E+00 0.00000E+00
 4.00000E-01 0.00000E+00 0.00000E+00 0.00000E+00
 6.00000E-01 0.00000E+00 0.00000E+00 0.00000E+00
 8.00000E-01 0.00000E+00 0.00000E+00 0.00000E+00
 1.00000E+00 0.00000E+00 0.00000E+00 0.00000E+00
 1.20000E+00 0.00000E+00 0.00000E+00 0.00000E+00
 1.40000E+00 0.00000E+00 0.00000E+00 0.00000E+00
 1.60000E+00 0.00000E+00 0.00000E+00 0.00000E+00
 1.80000E+00 0.00000E+00 0.00000E+00 0.00000E+00
 2.00000E+00 2.77614E+02 2.77614E+02 9.99991E-01
 2.20000E+00 4.19190E+02 4.19190E+02 9.99994E-01
 2.40000E+00 4.92459E+02 4.92459E+02 9.99994E-01
 2.60000E+00 5.37216E+02 5.37216E+02 9.99992E-01
 2.80000E+00 5.68198E+02 5.68198E+02 9.99991E-01
 3.00000E+00 5.91843E+02 5.91843E+02 9.99989E-01
 3.20000E+00 6.06692E+02 6.06692E+02 9.99986E-01
 3.40000E+00 6.23390E+02 6.23390E+02 9.99983E-01
 3.60000E+00 6.38316E+02 6.38316E+02 9.99979E-01
 3.80000E+00 6.51419E+02 6.51419E+02 9.99974E-01
 4.00000E+00 6.62551E+02 6.62551E+02 9.99969E-01
 4.20000E+00 6.72754E+02 6.72754E+02 9.99963E-01
 4.40000E+00 6.82226E+02 6.82226E+02 9.99954E-01
 4.60000E+00 6.90960E+02 6.90960E+02 9.99946E-01
 4.80000E+00 7.01503E+02 7.09417E+02 9.99937E-01
 5.00000E+00 7.29391E+02 7.90815E+02 9.99933E-01
 5.20000E+00 7.51701E+02 8.53295E+02 9.99926E-01
 5.40000E+00 7.73470E+02 9.19528E+02 9.99919E-01
 5.60000E+00 7.81379E+02 9.54240E+02 9.99908E-01
 5.80000E+00 7.78539E+02 9.67273E+02 9.99896E-01
 6.00000E+00 7.67329E+02 9.65411E+02 9.99883E-01
 6.20000E+00 7.49605E+02 9.52862E+02 9.99864E-01
 6.40000E+00 7.27078E+02 9.32683E+02 9.99844E-01
 6.60000E+00 7.13122E+02 9.43304E+02 9.99830E-01
 6.80000E+00 7.02078E+02 9.62507E+02 9.99817E-01
 7.00000E+00 6.85571E+02 9.64192E+02 9.99799E-01
 7.20000E+00 6.77023E+02 9.74059E+02 9.99788E-01
 7.40000E+00 6.75798E+02 9.88605E+02 9.99785E-01
 7.60000E+00 6.63477E+02 9.81493E+02 9.99773E-01
 7.80000E+00 6.62712E+02 9.85144E+02 9.99770E-01
 8.00000E+00 6.57377E+02 9.78087E+02 9.99760E-01
 8.50000E+00 6.36150E+02 9.68541E+02 9.99727E-01
 9.00000E+00 6.19039E+02 9.78624E+02 9.99697E-01
 9.50000E+00 6.03636E+02 9.88353E+02 9.99664E-01
 1.00000E+01 5.89029E+02 9.98414E+02 9.99614E-01
 1.20000E+01 5.57950E+02 1.05826E+03 9.99446E-01
 1.40000E+01 4.14179E+02 8.20338E+02 9.99037E-01
 1.60000E+01 2.65758E+02 5.18708E+02 9.98227E-01
 1.80000E+01 1.82791E+02 3.45329E+02 9.97153E-01
 2.00000E+01 1.40437E+02 2.55824E+02 9.95982E-01
