# n +  28Si   : (n,n')            Total
# Q-value    = 0.00000E+00
# E-threshold= 1.84317E+00
# # energies = 50
#    E         xs       gamma xs  xs/res.prod.xs
 1.000E-01 0.00000E+00 0.00000E+00 0.00000E+00
 2.000E-01 0.00000E+00 0.00000E+00 0.00000E+00
 4.000E-01 0.00000E+00 0.00000E+00 0.00000E+00
 6.000E-01 0.00000E+00 0.00000E+00 0.00000E+00
 8.000E-01 0.00000E+00 0.00000E+00 0.00000E+00
 1.000E+00 0.00000E+00 0.00000E+00 0.00000E+00
 1.200E+00 0.00000E+00 0.00000E+00 0.00000E+00
 1.400E+00 0.00000E+00 0.00000E+00 0.00000E+00
 1.600E+00 0.00000E+00 0.00000E+00 0.00000E+00
 1.800E+00 0.00000E+00 0.00000E+00 0.00000E+00
 2.000E+00 2.77617E+02 2.77617E+02 9.99992E-01
 2.200E+00 4.19193E+02 4.19193E+02 9.99995E-01
 2.400E+00 4.92462E+02 4.92462E+02 9.99994E-01
 2.600E+00 5.37220E+02 5.37220E+02 9.99993E-01
 2.800E+00 5.68202E+02 5.68202E+02 9.99992E-01
 3.000E+00 5.91848E+02 5.91848E+02 9.99990E-01
 3.200E+00 6.06697E+02 6.06697E+02 9.99989E-01
 3.400E+00 6.23396E+02 6.23396E+02 9.99986E-01
 3.600E+00 6.38323E+02 6.38323E+02 9.99983E-01
 3.800E+00 6.51427E+02 6.51427E+02 9.99979E-01
 4.000E+00 6.62560E+02 6.62560E+02 9.99974E-01
 4.200E+00 6.72764E+02 6.72764E+02 9.99970E-01
 4.400E+00 6.82238E+02 6.82238E+02 9.99963E-01
 4.600E+00 6.90973E+02 6.90973E+02 9.99956E-01
 4.800E+00 7.01515E+02 7.09429E+02 9.99949E-01
 5.000E+00 7.29400E+02 7.90824E+02 9.99946E-01
 5.200E+00 7.51704E+02 8.53297E+02 9.99942E-01
 5.400E+00 7.73464E+02 9.19518E+02 9.99936E-01
 5.600E+00 7.81358E+02 9.54213E+02 9.99928E-01
 5.800E+00 7.78487E+02 9.67215E+02 9.99919E-01
 6.000E+00 7.67212E+02 9.65287E+02 9.99909E-01
 6.200E+00 7.49358E+02 9.52594E+02 9.99895E-01
 6.400E+00 7.26600E+02 9.32139E+02 9.99880E-01
 6.600E+00 7.12281E+02 9.42241E+02 9.99871E-01
 6.800E+00 7.00748E+02 9.60751E+02 9.99862E-01
 7.000E+00 6.83663E+02 9.61585E+02 9.99849E-01
 7.200E+00 6.74539E+02 9.70577E+02 9.99841E-01
 7.400E+00 6.72752E+02 9.84269E+02 9.99840E-01
 7.600E+00 6.59950E+02 9.76407E+02 9.99833E-01
 7.800E+00 6.58797E+02 9.79437E+02 9.99831E-01
 8.000E+00 6.53138E+02 9.71858E+02 9.99824E-01
 8.500E+00 6.31571E+02 9.61589E+02 9.99802E-01
 9.000E+00 6.14363E+02 9.71119E+02 9.99783E-01
 9.500E+00 5.98435E+02 9.79303E+02 9.99760E-01
 1.000E+01 5.83619E+02 9.88670E+02 9.99728E-01
 1.200E+01 5.56419E+02 1.05507E+03 9.99622E-01
 1.400E+01 4.16311E+02 8.24510E+02 9.99360E-01
 1.600E+01 2.69042E+02 5.25483E+02 9.98839E-01
 1.800E+01 1.85108E+02 3.50156E+02 9.98119E-01
 2.000E+01 1.41492E+02 2.58004E+02 9.97293E-01
