# n + Pb208   : (n,n')            Total
# Q-value    = 0.00000E+00
# E-threshold= 2.62720E+00
# # energies =    46
#     E          xs       gamma xs  xs/res.prod.xs
 1.00000E+00 0.00000E+00 0.00000E+00 0.00000E+00
 1.20000E+00 0.00000E+00 0.00000E+00 0.00000E+00
 1.40000E+00 0.00000E+00 0.00000E+00 0.00000E+00
 1.60000E+00 0.00000E+00 0.00000E+00 0.00000E+00
 1.80000E+00 0.00000E+00 0.00000E+00 0.00000E+00
 2.00000E+00 0.00000E+00 0.00000E+00 0.00000E+00
 2.20000E+00 0.00000E+00 0.00000E+00 0.00000E+00
 2.40000E+00 0.00000E+00 0.00000E+00 0.00000E+00
 2.60000E+00 0.00000E+00 0.00000E+00 0.00000E+00
 2.80000E+00 3.16140E+02 3.16140E+02 9.98683E-01
 3.00000E+00 5.13703E+02 5.13703E+02 9.99058E-01
 3.20000E+00 6.62818E+02 6.62818E+02 9.99106E-01
 3.40000E+00 8.73114E+02 1.01064E+03 9.99293E-01
 3.60000E+00 1.06987E+03 1.40953E+03 9.99347E-01
 3.80000E+00 1.25874E+03 1.86320E+03 9.99364E-01
 4.00000E+00 1.44171E+03 2.40689E+03 9.99370E-01
 4.20000E+00 1.69068E+03 3.18229E+03 9.99457E-01
 4.40000E+00 1.93531E+03 3.90148E+03 9.99528E-01
 4.60000E+00 2.12295E+03 4.48171E+03 9.99578E-01
 4.80000E+00 2.25892E+03 4.94623E+03 9.99606E-01
 5.00000E+00 2.35470E+03 5.32283E+03 9.99615E-01
 5.50000E+00 2.48041E+03 6.02150E+03 9.99624E-01
 6.00000E+00 2.52030E+03 6.53502E+03 9.99613E-01
 6.50000E+00 2.53188E+03 7.00268E+03 9.99594E-01
 7.00000E+00 2.54384E+03 7.50023E+03 9.99563E-01
 7.50000E+00 2.56603E+03 8.04774E+03 9.99527E-01
 8.00000E+00 2.48100E+03 8.29006E+03 9.99466E-01
 8.50000E+00 2.26939E+03 8.04183E+03 9.99365E-01
 9.00000E+00 1.97003E+03 7.33712E+03 9.99215E-01
 9.50000E+00 1.63280E+03 6.31136E+03 9.98997E-01
 1.00000E+01 1.30296E+03 5.17228E+03 9.98685E-01
 1.10000E+01 7.95726E+02 3.22031E+03 9.97730E-01
 1.20000E+01 5.17139E+02 2.02918E+03 9.96465E-01
 1.30000E+01 3.86331E+02 1.45213E+03 9.95266E-01
 1.40000E+01 3.22403E+02 1.16348E+03 9.94330E-01
 1.50000E+01 2.87572E+02 1.02043E+03 9.93660E-01
 1.60000E+01 2.64455E+02 9.30732E+02 9.93083E-01
 1.70000E+01 2.51630E+02 8.87523E+02 9.92566E-01
 1.80000E+01 2.37229E+02 8.36427E+02 9.91951E-01
 1.90000E+01 2.23844E+02 7.89412E+02 9.91452E-01
 2.00000E+01 2.13256E+02 7.50335E+02 9.91088E-01
 2.20000E+01 1.93872E+02 6.82854E+02 9.91249E-01
 2.40000E+01 1.75469E+02 6.16600E+02 9.92601E-01
 2.60000E+01 1.58817E+02 5.55299E+02 9.94242E-01
 2.80000E+01 1.47755E+02 5.11643E+02 9.95458E-01
 3.00000E+01 1.34719E+02 4.55964E+02 9.96231E-01
