# n + 208Pb: Gamma-ray intensity - 208Pb: Level 28 --> Level 18 - gamma energy    0.436452
# E-initial  =   4.698323 E-final=   4.261871
# E-threshold= 4.72111E+00
# # energies =    67
#    E           xs
 1.00000E-11 0.00000E+00
 2.53000E-08 0.00000E+00
 2.00000E-07 0.00000E+00
 1.00000E-06 0.00000E+00
 1.00000E-03 0.00000E+00
 2.00000E-03 0.00000E+00
 5.00000E-03 0.00000E+00
 1.00000E-02 0.00000E+00
 2.00000E-02 0.00000E+00
 5.00000E-02 0.00000E+00
 1.00000E-01 0.00000E+00
 2.00000E-01 0.00000E+00
 3.00000E-01 0.00000E+00
 4.00000E-01 0.00000E+00
 5.00000E-01 0.00000E+00
 7.50000E-01 0.00000E+00
 1.00000E+00 0.00000E+00
 1.20000E+00 0.00000E+00
 1.40000E+00 0.00000E+00
 1.60000E+00 0.00000E+00
 1.80000E+00 0.00000E+00
 2.00000E+00 0.00000E+00
 2.20000E+00 0.00000E+00
 2.40000E+00 0.00000E+00
 2.60000E+00 0.00000E+00
 2.80000E+00 0.00000E+00
 3.00000E+00 0.00000E+00
 3.20000E+00 0.00000E+00
 3.40000E+00 0.00000E+00
 3.60000E+00 0.00000E+00
 3.80000E+00 0.00000E+00
 4.00000E+00 0.00000E+00
 4.20000E+00 0.00000E+00
 4.40000E+00 0.00000E+00
 4.60000E+00 0.00000E+00
 4.80000E+00 4.85646E-01
 5.00000E+00 1.02450E+00
 5.50000E+00 1.41132E+00
 6.00000E+00 1.24847E+00
 6.50000E+00 1.10469E+00
 7.00000E+00 9.99358E-01
 7.50000E+00 9.10001E-01
 8.00000E+00 7.79452E-01
 8.50000E+00 6.17981E-01
 9.00000E+00 4.75942E-01
 9.50000E+00 3.52994E-01
 1.00000E+01 2.59974E-01
 1.10000E+01 1.49713E-01
 1.20000E+01 1.01990E-01
 1.30000E+01 8.09818E-02
 1.40000E+01 7.17854E-02
 1.50000E+01 6.62529E-02
 1.60000E+01 6.19617E-02
 1.70000E+01 5.97544E-02
 1.80000E+01 5.69034E-02
 1.90000E+01 5.46049E-02
 2.00000E+01 5.30686E-02
 2.10000E+01 5.16594E-02
 2.20000E+01 4.94683E-02
 2.30000E+01 4.80085E-02
 2.40000E+01 4.63598E-02
 2.50000E+01 4.43442E-02
 2.60000E+01 4.30367E-02
 2.70000E+01 4.20880E-02
 2.80000E+01 4.07459E-02
 2.90000E+01 3.94663E-02
 3.00000E+01 3.85126E-02
