# n + 208Pb: Gamma-ray intensity - 208Pb: Level 26 --> Level  2 - gamma energy    1.413037
# E-initial  =   4.610748 E-final=   3.197711
# E-threshold= 4.63311E+00
# # energies =    67
#    E           xs
 1.00000E-11 0.00000E+00
 2.53000E-08 0.00000E+00
 2.00000E-07 0.00000E+00
 1.00000E-06 0.00000E+00
 1.00000E-03 0.00000E+00
 2.00000E-03 0.00000E+00
 5.00000E-03 0.00000E+00
 1.00000E-02 0.00000E+00
 2.00000E-02 0.00000E+00
 5.00000E-02 0.00000E+00
 1.00000E-01 0.00000E+00
 2.00000E-01 0.00000E+00
 3.00000E-01 0.00000E+00
 4.00000E-01 0.00000E+00
 5.00000E-01 0.00000E+00
 7.50000E-01 0.00000E+00
 1.00000E+00 0.00000E+00
 1.20000E+00 0.00000E+00
 1.40000E+00 0.00000E+00
 1.60000E+00 0.00000E+00
 1.80000E+00 0.00000E+00
 2.00000E+00 0.00000E+00
 2.20000E+00 0.00000E+00
 2.40000E+00 0.00000E+00
 2.60000E+00 0.00000E+00
 2.80000E+00 0.00000E+00
 3.00000E+00 0.00000E+00
 3.20000E+00 0.00000E+00
 3.40000E+00 0.00000E+00
 3.60000E+00 0.00000E+00
 3.80000E+00 0.00000E+00
 4.00000E+00 0.00000E+00
 4.20000E+00 0.00000E+00
 4.40000E+00 0.00000E+00
 4.60000E+00 0.00000E+00
 4.80000E+00 4.07985E-01
 5.00000E+00 1.13012E+00
 5.50000E+00 5.26260E+00
 6.00000E+00 1.30914E+01
 6.50000E+00 2.29877E+01
 7.00000E+00 3.44723E+01
 7.50000E+00 4.83711E+01
 8.00000E+00 6.38480E+01
 8.50000E+00 7.90629E+01
 9.00000E+00 9.09567E+01
 9.50000E+00 9.56992E+01
 1.00000E+01 9.21681E+01
 1.10000E+01 7.25089E+01
 1.20000E+01 4.96837E+01
 1.30000E+01 3.48837E+01
 1.40000E+01 2.79868E+01
 1.50000E+01 2.47243E+01
 1.60000E+01 2.34797E+01
 1.70000E+01 2.31867E+01
 1.80000E+01 2.24899E+01
 1.90000E+01 2.18510E+01
 2.00000E+01 2.17146E+01
 2.10000E+01 2.12869E+01
 2.20000E+01 2.08033E+01
 2.30000E+01 2.03218E+01
 2.40000E+01 1.97523E+01
 2.50000E+01 1.86477E+01
 2.60000E+01 1.77515E+01
 2.70000E+01 1.69704E+01
 2.80000E+01 1.59809E+01
 2.90000E+01 1.52776E+01
 3.00000E+01 1.46203E+01
