# n + 208Pb: Gamma-ray intensity - 207Pb: Level  2 --> Level  0 - gamma energy    0.897800
# E-initial  =   0.897800 E-final=   0.000000
# E-threshold= 8.30576E+00
# # energies = 67
#    E         xs
 1.000E-11 0.00000E+00
 2.530E-08 0.00000E+00
 2.000E-07 0.00000E+00
 1.000E-06 0.00000E+00
 1.000E-03 0.00000E+00
 2.000E-03 0.00000E+00
 5.000E-03 0.00000E+00
 1.000E-02 0.00000E+00
 2.000E-02 0.00000E+00
 5.000E-02 0.00000E+00
 1.000E-01 0.00000E+00
 2.000E-01 0.00000E+00
 3.000E-01 0.00000E+00
 4.000E-01 0.00000E+00
 5.000E-01 0.00000E+00
 7.500E-01 0.00000E+00
 1.000E+00 0.00000E+00
 1.200E+00 0.00000E+00
 1.400E+00 0.00000E+00
 1.600E+00 0.00000E+00
 1.800E+00 0.00000E+00
 2.000E+00 0.00000E+00
 2.200E+00 0.00000E+00
 2.400E+00 0.00000E+00
 2.600E+00 0.00000E+00
 2.800E+00 0.00000E+00
 3.000E+00 0.00000E+00
 3.200E+00 0.00000E+00
 3.400E+00 0.00000E+00
 3.600E+00 0.00000E+00
 3.800E+00 0.00000E+00
 4.000E+00 0.00000E+00
 4.200E+00 0.00000E+00
 4.400E+00 0.00000E+00
 4.600E+00 0.00000E+00
 4.800E+00 0.00000E+00
 5.000E+00 0.00000E+00
 5.500E+00 0.00000E+00
 6.000E+00 0.00000E+00
 6.500E+00 0.00000E+00
 7.000E+00 0.00000E+00
 7.500E+00 0.00000E+00
 8.000E+00 0.00000E+00
 8.500E+00 9.18422E-01
 9.000E+00 1.87011E+01
 9.500E+00 5.63773E+01
 1.000E+01 1.00475E+02
 1.100E+01 1.81540E+02
 1.200E+01 2.21932E+02
 1.300E+01 2.20862E+02
 1.400E+01 2.01523E+02
 1.500E+01 1.81152E+02
 1.600E+01 1.58876E+02
 1.700E+01 1.34430E+02
 1.800E+01 1.10816E+02
 1.900E+01 9.04600E+01
 2.000E+01 7.36388E+01
 2.100E+01 5.99748E+01
 2.200E+01 5.04566E+01
 2.300E+01 4.39260E+01
 2.400E+01 3.92571E+01
 2.500E+01 3.61239E+01
 2.600E+01 3.38555E+01
 2.700E+01 3.17360E+01
 2.800E+01 3.04673E+01
 2.900E+01 2.88915E+01
 3.000E+01 2.77995E+01
