# n + 208Pb: Gamma-ray intensity - 208Pb: Level 19 --> Level  0 - gamma energy    4.229500
# E-initial  =   4.229500 E-final=   0.000000
# E-threshold= 4.25001E+00
# # energies = 67
#    E         xs
 1.000E-11 0.00000E+00
 2.530E-08 0.00000E+00
 2.000E-07 0.00000E+00
 1.000E-06 0.00000E+00
 1.000E-03 0.00000E+00
 2.000E-03 0.00000E+00
 5.000E-03 0.00000E+00
 1.000E-02 0.00000E+00
 2.000E-02 0.00000E+00
 5.000E-02 0.00000E+00
 1.000E-01 0.00000E+00
 2.000E-01 0.00000E+00
 3.000E-01 0.00000E+00
 4.000E-01 0.00000E+00
 5.000E-01 0.00000E+00
 7.500E-01 0.00000E+00
 1.000E+00 0.00000E+00
 1.200E+00 0.00000E+00
 1.400E+00 0.00000E+00
 1.600E+00 0.00000E+00
 1.800E+00 0.00000E+00
 2.000E+00 0.00000E+00
 2.200E+00 0.00000E+00
 2.400E+00 0.00000E+00
 2.600E+00 0.00000E+00
 2.800E+00 0.00000E+00
 3.000E+00 0.00000E+00
 3.200E+00 0.00000E+00
 3.400E+00 0.00000E+00
 3.600E+00 0.00000E+00
 3.800E+00 0.00000E+00
 4.000E+00 0.00000E+00
 4.200E+00 0.00000E+00
 4.400E+00 7.80792E+00
 4.600E+00 1.03066E+01
 4.800E+00 1.01010E+01
 5.000E+00 8.96292E+00
 5.500E+00 6.41000E+00
 6.000E+00 5.21852E+00
 6.500E+00 4.64517E+00
 7.000E+00 4.31928E+00
 7.500E+00 4.09272E+00
 8.000E+00 3.43218E+00
 8.500E+00 2.62434E+00
 9.000E+00 1.95191E+00
 9.500E+00 1.46842E+00
 1.000E+01 1.09649E+00
 1.100E+01 6.99450E-01
 1.200E+01 5.29242E-01
 1.300E+01 4.36974E-01
 1.400E+01 3.90480E-01
 1.500E+01 3.65545E-01
 1.600E+01 3.54866E-01
 1.700E+01 3.56038E-01
 1.800E+01 3.54728E-01
 1.900E+01 3.49007E-01
 2.000E+01 3.51098E-01
 2.100E+01 3.46187E-01
 2.200E+01 3.46483E-01
 2.300E+01 3.38597E-01
 2.400E+01 3.36810E-01
 2.500E+01 3.30815E-01
 2.600E+01 3.19513E-01
 2.700E+01 3.14711E-01
 2.800E+01 3.09136E-01
 2.900E+01 3.06002E-01
 3.000E+01 2.98442E-01
