# n + 208Pb: Gamma-ray intensity - 208Pb: Level 21 --> Level  3 - gamma energy    0.883592
# E-initial  =   4.358670 E-final=   3.475078
# E-threshold= 4.37981E+00
# # energies =    67
#    E           xs
 1.00000E-11 0.00000E+00
 2.53000E-08 0.00000E+00
 2.00000E-07 0.00000E+00
 1.00000E-06 0.00000E+00
 1.00000E-03 0.00000E+00
 2.00000E-03 0.00000E+00
 5.00000E-03 0.00000E+00
 1.00000E-02 0.00000E+00
 2.00000E-02 0.00000E+00
 5.00000E-02 0.00000E+00
 1.00000E-01 0.00000E+00
 2.00000E-01 0.00000E+00
 3.00000E-01 0.00000E+00
 4.00000E-01 0.00000E+00
 5.00000E-01 0.00000E+00
 7.50000E-01 0.00000E+00
 1.00000E+00 0.00000E+00
 1.20000E+00 0.00000E+00
 1.40000E+00 0.00000E+00
 1.60000E+00 0.00000E+00
 1.80000E+00 0.00000E+00
 2.00000E+00 0.00000E+00
 2.20000E+00 0.00000E+00
 2.40000E+00 0.00000E+00
 2.60000E+00 0.00000E+00
 2.80000E+00 0.00000E+00
 3.00000E+00 0.00000E+00
 3.20000E+00 0.00000E+00
 3.40000E+00 0.00000E+00
 3.60000E+00 0.00000E+00
 3.80000E+00 0.00000E+00
 4.00000E+00 0.00000E+00
 4.20000E+00 0.00000E+00
 4.40000E+00 6.78032E+00
 4.60000E+00 2.40776E+01
 4.80000E+00 3.41008E+01
 5.00000E+00 3.86192E+01
 5.50000E+00 3.73729E+01
 6.00000E+00 3.30231E+01
 6.50000E+00 2.97808E+01
 7.00000E+00 2.72838E+01
 7.50000E+00 2.56276E+01
 8.00000E+00 2.32667E+01
 8.50000E+00 1.95559E+01
 9.00000E+00 1.54658E+01
 9.50000E+00 1.15174E+01
 1.00000E+01 8.28294E+00
 1.10000E+01 4.11806E+00
 1.20000E+01 2.28788E+00
 1.30000E+01 1.51258E+00
 1.40000E+01 1.18555E+00
 1.50000E+01 1.02553E+00
 1.60000E+01 9.23741E-01
 1.70000E+01 8.71187E-01
 1.80000E+01 8.04481E-01
 1.90000E+01 7.50705E-01
 2.00000E+01 7.07668E-01
 2.10000E+01 6.71537E-01
 2.20000E+01 6.31623E-01
 2.30000E+01 6.01145E-01
 2.40000E+01 5.68096E-01
 2.50000E+01 5.29802E-01
 2.60000E+01 4.99676E-01
 2.70000E+01 4.80099E-01
 2.80000E+01 4.54333E-01
 2.90000E+01 4.36209E-01
 3.00000E+01 4.19030E-01
