# n + 208Pb: Gamma-ray intensity - 208Pb: Level 28 --> Level  8 - gamma energy    0.702885
# E-initial  =   4.698323 E-final=   3.995438
# E-threshold= 4.72111E+00
# # energies =    67
#    E           xs
 1.00000E-11 0.00000E+00
 2.53000E-08 0.00000E+00
 2.00000E-07 0.00000E+00
 1.00000E-06 0.00000E+00
 1.00000E-03 0.00000E+00
 2.00000E-03 0.00000E+00
 5.00000E-03 0.00000E+00
 1.00000E-02 0.00000E+00
 2.00000E-02 0.00000E+00
 5.00000E-02 0.00000E+00
 1.00000E-01 0.00000E+00
 2.00000E-01 0.00000E+00
 3.00000E-01 0.00000E+00
 4.00000E-01 0.00000E+00
 5.00000E-01 0.00000E+00
 7.50000E-01 0.00000E+00
 1.00000E+00 0.00000E+00
 1.20000E+00 0.00000E+00
 1.40000E+00 0.00000E+00
 1.60000E+00 0.00000E+00
 1.80000E+00 0.00000E+00
 2.00000E+00 0.00000E+00
 2.20000E+00 0.00000E+00
 2.40000E+00 0.00000E+00
 2.60000E+00 0.00000E+00
 2.80000E+00 0.00000E+00
 3.00000E+00 0.00000E+00
 3.20000E+00 0.00000E+00
 3.40000E+00 0.00000E+00
 3.60000E+00 0.00000E+00
 3.80000E+00 0.00000E+00
 4.00000E+00 0.00000E+00
 4.20000E+00 0.00000E+00
 4.40000E+00 0.00000E+00
 4.60000E+00 0.00000E+00
 4.80000E+00 2.52118E-01
 5.00000E+00 5.31855E-01
 5.50000E+00 7.32654E-01
 6.00000E+00 6.48104E-01
 6.50000E+00 5.73459E-01
 7.00000E+00 5.18782E-01
 7.50000E+00 4.72398E-01
 8.00000E+00 4.04627E-01
 8.50000E+00 3.20801E-01
 9.00000E+00 2.47064E-01
 9.50000E+00 1.83239E-01
 1.00000E+01 1.34952E-01
 1.10000E+01 7.77153E-02
 1.20000E+01 5.29436E-02
 1.30000E+01 4.20392E-02
 1.40000E+01 3.72656E-02
 1.50000E+01 3.43938E-02
 1.60000E+01 3.21662E-02
 1.70000E+01 3.10203E-02
 1.80000E+01 2.95402E-02
 1.90000E+01 2.83376E-02
 2.00000E+01 2.75494E-02
 2.10000E+01 2.68177E-02
 2.20000E+01 2.56802E-02
 2.30000E+01 2.49224E-02
 2.40000E+01 2.40664E-02
 2.50000E+01 2.30201E-02
 2.60000E+01 2.23412E-02
 2.70000E+01 2.18487E-02
 2.80000E+01 2.11521E-02
 2.90000E+01 2.04877E-02
 3.00000E+01 1.99926E-02
