# n + 208Pb: Gamma-ray intensity - 208Pb: Level 12 --> Level  7 - gamma energy    0.164190
# E-initial  =   4.125350 E-final=   3.961160
# E-threshold= 4.14536E+00
# # energies = 67
#    E         xs
 1.000E-11 0.00000E+00
 2.530E-08 0.00000E+00
 2.000E-07 0.00000E+00
 1.000E-06 0.00000E+00
 1.000E-03 0.00000E+00
 2.000E-03 0.00000E+00
 5.000E-03 0.00000E+00
 1.000E-02 0.00000E+00
 2.000E-02 0.00000E+00
 5.000E-02 0.00000E+00
 1.000E-01 0.00000E+00
 2.000E-01 0.00000E+00
 3.000E-01 0.00000E+00
 4.000E-01 0.00000E+00
 5.000E-01 0.00000E+00
 7.500E-01 0.00000E+00
 1.000E+00 0.00000E+00
 1.200E+00 0.00000E+00
 1.400E+00 0.00000E+00
 1.600E+00 0.00000E+00
 1.800E+00 0.00000E+00
 2.000E+00 0.00000E+00
 2.200E+00 0.00000E+00
 2.400E+00 0.00000E+00
 2.600E+00 0.00000E+00
 2.800E+00 0.00000E+00
 3.000E+00 0.00000E+00
 3.200E+00 0.00000E+00
 3.400E+00 0.00000E+00
 3.600E+00 0.00000E+00
 3.800E+00 0.00000E+00
 4.000E+00 0.00000E+00
 4.200E+00 7.22167E-01
 4.400E+00 1.62818E+00
 4.600E+00 2.13949E+00
 4.800E+00 2.41335E+00
 5.000E+00 2.51100E+00
 5.500E+00 2.48010E+00
 6.000E+00 2.39683E+00
 6.500E+00 2.33346E+00
 7.000E+00 2.30714E+00
 7.500E+00 2.32386E+00
 8.000E+00 2.30874E+00
 8.500E+00 2.17757E+00
 9.000E+00 1.93020E+00
 9.500E+00 1.63436E+00
 1.000E+01 1.34382E+00
 1.100E+01 8.95365E-01
 1.200E+01 6.54155E-01
 1.300E+01 5.36161E-01
 1.400E+01 4.75670E-01
 1.500E+01 4.38441E-01
 1.600E+01 4.11399E-01
 1.700E+01 3.91189E-01
 1.800E+01 3.72767E-01
 1.900E+01 3.56940E-01
 2.000E+01 3.43109E-01
 2.100E+01 3.29341E-01
 2.200E+01 3.15764E-01
 2.300E+01 3.02924E-01
 2.400E+01 2.90625E-01
 2.500E+01 2.78397E-01
 2.600E+01 2.67201E-01
 2.700E+01 2.58519E-01
 2.800E+01 2.50358E-01
 2.900E+01 2.42697E-01
 3.000E+01 2.35109E-01
