# n + 208Pb: Gamma-ray intensity - 208Pb: Level 28 --> Level  1 - gamma energy    2.083801
# E-initial  =   4.698323 E-final=   2.614522
# E-threshold= 4.72111E+00
# # energies =    67
#    E           xs
 1.00000E-11 0.00000E+00
 2.53000E-08 0.00000E+00
 2.00000E-07 0.00000E+00
 1.00000E-06 0.00000E+00
 1.00000E-03 0.00000E+00
 2.00000E-03 0.00000E+00
 5.00000E-03 0.00000E+00
 1.00000E-02 0.00000E+00
 2.00000E-02 0.00000E+00
 5.00000E-02 0.00000E+00
 1.00000E-01 0.00000E+00
 2.00000E-01 0.00000E+00
 3.00000E-01 0.00000E+00
 4.00000E-01 0.00000E+00
 5.00000E-01 0.00000E+00
 7.50000E-01 0.00000E+00
 1.00000E+00 0.00000E+00
 1.20000E+00 0.00000E+00
 1.40000E+00 0.00000E+00
 1.60000E+00 0.00000E+00
 1.80000E+00 0.00000E+00
 2.00000E+00 0.00000E+00
 2.20000E+00 0.00000E+00
 2.40000E+00 0.00000E+00
 2.60000E+00 0.00000E+00
 2.80000E+00 0.00000E+00
 3.00000E+00 0.00000E+00
 3.20000E+00 0.00000E+00
 3.40000E+00 0.00000E+00
 3.60000E+00 0.00000E+00
 3.80000E+00 0.00000E+00
 4.00000E+00 0.00000E+00
 4.20000E+00 0.00000E+00
 4.40000E+00 0.00000E+00
 4.60000E+00 0.00000E+00
 4.80000E+00 1.66026E+00
 5.00000E+00 3.50242E+00
 5.50000E+00 4.82483E+00
 6.00000E+00 4.26811E+00
 6.50000E+00 3.77655E+00
 7.00000E+00 3.41647E+00
 7.50000E+00 3.11098E+00
 8.00000E+00 2.66468E+00
 8.50000E+00 2.11267E+00
 9.00000E+00 1.62708E+00
 9.50000E+00 1.20677E+00
 1.00000E+01 8.88764E-01
 1.10000E+01 5.11817E-01
 1.20000E+01 3.48668E-01
 1.30000E+01 2.76849E-01
 1.40000E+01 2.45410E-01
 1.50000E+01 2.26496E-01
 1.60000E+01 2.11826E-01
 1.70000E+01 2.04280E-01
 1.80000E+01 1.94533E-01
 1.90000E+01 1.86676E-01
 2.00000E+01 1.81424E-01
 2.10000E+01 1.76606E-01
 2.20000E+01 1.69115E-01
 2.30000E+01 1.64125E-01
 2.40000E+01 1.58489E-01
 2.50000E+01 1.51598E-01
 2.60000E+01 1.47128E-01
 2.70000E+01 1.43885E-01
 2.80000E+01 1.39296E-01
 2.90000E+01 1.34922E-01
 3.00000E+01 1.31661E-01
