# n + 208Pb: Gamma-ray intensity - 208Pb: Level 20 --> Level  7 - gamma energy    0.362790
# E-initial  =   4.323950 E-final=   3.961160
# E-threshold= 4.34492E+00
# # energies = 67
#    E         xs
 1.000E-11 0.00000E+00
 2.530E-08 0.00000E+00
 2.000E-07 0.00000E+00
 1.000E-06 0.00000E+00
 1.000E-03 0.00000E+00
 2.000E-03 0.00000E+00
 5.000E-03 0.00000E+00
 1.000E-02 0.00000E+00
 2.000E-02 0.00000E+00
 5.000E-02 0.00000E+00
 1.000E-01 0.00000E+00
 2.000E-01 0.00000E+00
 3.000E-01 0.00000E+00
 4.000E-01 0.00000E+00
 5.000E-01 0.00000E+00
 7.500E-01 0.00000E+00
 1.000E+00 0.00000E+00
 1.200E+00 0.00000E+00
 1.400E+00 0.00000E+00
 1.600E+00 0.00000E+00
 1.800E+00 0.00000E+00
 2.000E+00 0.00000E+00
 2.200E+00 0.00000E+00
 2.400E+00 0.00000E+00
 2.600E+00 0.00000E+00
 2.800E+00 0.00000E+00
 3.000E+00 0.00000E+00
 3.200E+00 0.00000E+00
 3.400E+00 0.00000E+00
 3.600E+00 0.00000E+00
 3.800E+00 0.00000E+00
 4.000E+00 0.00000E+00
 4.200E+00 0.00000E+00
 4.400E+00 1.48743E+00
 4.600E+00 5.78279E+00
 4.800E+00 8.26730E+00
 5.000E+00 9.62201E+00
 5.500E+00 1.18714E+01
 6.000E+00 1.38095E+01
 6.500E+00 1.44567E+01
 7.000E+00 1.41582E+01
 7.500E+00 1.37574E+01
 8.000E+00 1.28913E+01
 8.500E+00 1.13524E+01
 9.000E+00 9.57480E+00
 9.500E+00 7.74385E+00
 1.000E+01 6.17043E+00
 1.100E+01 3.97013E+00
 1.200E+01 2.89306E+00
 1.300E+01 2.38694E+00
 1.400E+01 2.13877E+00
 1.500E+01 1.98146E+00
 1.600E+01 1.85731E+00
 1.700E+01 1.76409E+00
 1.800E+01 1.66712E+00
 1.900E+01 1.58388E+00
 2.000E+01 1.50727E+00
 2.100E+01 1.43951E+00
 2.200E+01 1.37195E+00
 2.300E+01 1.31642E+00
 2.400E+01 1.26525E+00
 2.500E+01 1.20583E+00
 2.600E+01 1.15101E+00
 2.700E+01 1.11330E+00
 2.800E+01 1.08019E+00
 2.900E+01 1.04837E+00
 3.000E+01 1.01820E+00
