# n + 208Pb: Gamma-ray intensity - 208Pb: Level 22 --> Level  2 - gamma energy    1.185574
# E-initial  =   4.383285 E-final=   3.197711
# E-threshold= 4.40454E+00
# # energies =    67
#    E           xs
 1.00000E-11 0.00000E+00
 2.53000E-08 0.00000E+00
 2.00000E-07 0.00000E+00
 1.00000E-06 0.00000E+00
 1.00000E-03 0.00000E+00
 2.00000E-03 0.00000E+00
 5.00000E-03 0.00000E+00
 1.00000E-02 0.00000E+00
 2.00000E-02 0.00000E+00
 5.00000E-02 0.00000E+00
 1.00000E-01 0.00000E+00
 2.00000E-01 0.00000E+00
 3.00000E-01 0.00000E+00
 4.00000E-01 0.00000E+00
 5.00000E-01 0.00000E+00
 7.50000E-01 0.00000E+00
 1.00000E+00 0.00000E+00
 1.20000E+00 0.00000E+00
 1.40000E+00 0.00000E+00
 1.60000E+00 0.00000E+00
 1.80000E+00 0.00000E+00
 2.00000E+00 0.00000E+00
 2.20000E+00 0.00000E+00
 2.40000E+00 0.00000E+00
 2.60000E+00 0.00000E+00
 2.80000E+00 0.00000E+00
 3.00000E+00 0.00000E+00
 3.20000E+00 0.00000E+00
 3.40000E+00 0.00000E+00
 3.60000E+00 0.00000E+00
 3.80000E+00 0.00000E+00
 4.00000E+00 0.00000E+00
 4.20000E+00 0.00000E+00
 4.40000E+00 0.00000E+00
 4.60000E+00 1.30221E+01
 4.80000E+00 2.01987E+01
 5.00000E+00 2.47869E+01
 5.50000E+00 2.85685E+01
 6.00000E+00 2.97780E+01
 6.50000E+00 3.15073E+01
 7.00000E+00 3.35675E+01
 7.50000E+00 3.61011E+01
 8.00000E+00 3.85463E+01
 8.50000E+00 3.91376E+01
 9.00000E+00 3.62044E+01
 9.50000E+00 3.07977E+01
 1.00000E+01 2.44280E+01
 1.10000E+01 1.37141E+01
 1.20000E+01 7.67820E+00
 1.30000E+01 4.97912E+00
 1.40000E+01 3.80865E+00
 1.50000E+01 3.28926E+00
 1.60000E+01 3.00413E+00
 1.70000E+01 2.84444E+00
 1.80000E+01 2.64459E+00
 1.90000E+01 2.47090E+00
 2.00000E+01 2.35502E+00
 2.10000E+01 2.23477E+00
 2.20000E+01 2.10735E+00
 2.30000E+01 2.01137E+00
 2.40000E+01 1.89792E+00
 2.50000E+01 1.76907E+00
 2.60000E+01 1.67051E+00
 2.70000E+01 1.56806E+00
 2.80000E+01 1.48530E+00
 2.90000E+01 1.42413E+00
 3.00000E+01 1.36494E+00
