# n + 208Pb: Gamma-ray intensity - 208Pb: Level 20 --> Level  1 - gamma energy    1.709424
# E-initial  =   4.323946 E-final=   2.614522
# E-threshold= 4.34492E+00
# # energies =    67
#    E           xs
 1.00000E-11 0.00000E+00
 2.53000E-08 0.00000E+00
 2.00000E-07 0.00000E+00
 1.00000E-06 0.00000E+00
 1.00000E-03 0.00000E+00
 2.00000E-03 0.00000E+00
 5.00000E-03 0.00000E+00
 1.00000E-02 0.00000E+00
 2.00000E-02 0.00000E+00
 5.00000E-02 0.00000E+00
 1.00000E-01 0.00000E+00
 2.00000E-01 0.00000E+00
 3.00000E-01 0.00000E+00
 4.00000E-01 0.00000E+00
 5.00000E-01 0.00000E+00
 7.50000E-01 0.00000E+00
 1.00000E+00 0.00000E+00
 1.20000E+00 0.00000E+00
 1.40000E+00 0.00000E+00
 1.60000E+00 0.00000E+00
 1.80000E+00 0.00000E+00
 2.00000E+00 0.00000E+00
 2.20000E+00 0.00000E+00
 2.40000E+00 0.00000E+00
 2.60000E+00 0.00000E+00
 2.80000E+00 0.00000E+00
 3.00000E+00 0.00000E+00
 3.20000E+00 0.00000E+00
 3.40000E+00 0.00000E+00
 3.60000E+00 0.00000E+00
 3.80000E+00 0.00000E+00
 4.00000E+00 0.00000E+00
 4.20000E+00 0.00000E+00
 4.40000E+00 5.12513E-02
 4.60000E+00 1.99238E-01
 4.80000E+00 2.84748E-01
 5.00000E+00 3.30707E-01
 5.50000E+00 4.04158E-01
 6.00000E+00 4.65039E-01
 6.50000E+00 4.81975E-01
 7.00000E+00 4.68456E-01
 7.50000E+00 4.52063E-01
 8.00000E+00 4.17975E-01
 8.50000E+00 3.59386E-01
 9.00000E+00 2.94326E-01
 9.50000E+00 2.31032E-01
 1.00000E+01 1.79207E-01
 1.10000E+01 1.11774E-01
 1.20000E+01 8.18406E-02
 1.30000E+01 6.88783E-02
 1.40000E+01 6.26465E-02
 1.50000E+01 5.85119E-02
 1.60000E+01 5.50505E-02
 1.70000E+01 5.24669E-02
 1.80000E+01 4.96187E-02
 1.90000E+01 4.71657E-02
 2.00000E+01 4.48963E-02
 2.10000E+01 4.29220E-02
 2.20000E+01 4.09347E-02
 2.30000E+01 3.93014E-02
 2.40000E+01 3.78051E-02
 2.50000E+01 3.61101E-02
 2.60000E+01 3.47569E-02
 2.70000E+01 3.36852E-02
 2.80000E+01 3.26327E-02
 2.90000E+01 3.16378E-02
 3.00000E+01 3.07047E-02
