# n + 208Pb: Gamma-ray intensity - 209Pb: Level  3 --> Level  0 - gamma energy    1.567090
# E-initial  =   1.567090 E-final=   0.000000
# E-threshold= 0.00000E+00
# # energies =    67
#    E           xs
 1.00000E-11 0.00000E+00
 2.53000E-08 0.00000E+00
 2.00000E-07 0.00000E+00
 1.00000E-06 2.47256E+02
 1.00000E-03 1.31832E+00
 2.00000E-03 7.82692E-01
 5.00000E-03 4.24217E-01
 1.00000E-02 2.53152E-01
 2.00000E-02 1.41369E-01
 5.00000E-02 7.56029E-02
 1.00000E-01 5.08889E-02
 2.00000E-01 3.63161E-02
 3.00000E-01 3.14230E-02
 4.00000E-01 2.94902E-02
 5.00000E-01 2.90215E-02
 7.50000E-01 3.11637E-02
 1.00000E+00 3.62738E-02
 1.20000E+00 4.21337E-02
 1.40000E+00 4.93099E-02
 1.60000E+00 5.83954E-02
 1.80000E+00 6.93396E-02
 2.00000E+00 8.23557E-02
 2.20000E+00 9.88669E-02
 2.40000E+00 1.17823E-01
 2.60000E+00 1.39223E-01
 2.80000E+00 1.21523E-01
 3.00000E+00 1.21717E-01
 3.20000E+00 1.29996E-01
 3.40000E+00 1.36576E-01
 3.60000E+00 1.44908E-01
 3.80000E+00 1.49383E-01
 4.00000E+00 1.57405E-01
 4.20000E+00 1.47635E-01
 4.40000E+00 1.20298E-01
 4.60000E+00 1.04814E-01
 4.80000E+00 1.05152E-01
 5.00000E+00 9.65331E-02
 5.50000E+00 7.94429E-02
 6.00000E+00 7.08270E-02
 6.50000E+00 7.23723E-02
 7.00000E+00 8.39632E-02
 7.50000E+00 1.08335E-01
 8.00000E+00 1.55851E-01
 8.50000E+00 2.37884E-01
 9.00000E+00 3.63881E-01
 9.50000E+00 5.16887E-01
 1.00000E+01 6.25609E-01
 1.10000E+01 5.79924E-01
 1.20000E+01 4.03265E-01
 1.30000E+01 2.74587E-01
 1.40000E+01 2.06145E-01
 1.50000E+01 1.65376E-01
 1.60000E+01 1.40582E-01
 1.70000E+01 1.30225E-01
 1.80000E+01 1.19614E-01
 1.90000E+01 1.12692E-01
 2.00000E+01 1.05174E-01
 2.10000E+01 9.56101E-02
 2.20000E+01 8.69280E-02
 2.30000E+01 8.23259E-02
 2.40000E+01 7.47954E-02
 2.50000E+01 7.13330E-02
 2.60000E+01 6.68122E-02
 2.70000E+01 6.43727E-02
 2.80000E+01 6.16397E-02
 2.90000E+01 5.88876E-02
 3.00000E+01 5.72829E-02
