# n + 208Pb: Gamma-ray intensity - 207Pb: Level  1 --> Level  0 - gamma energy    0.569703
# E-initial  =   0.569703 E-final=   0.000000
# E-threshold= 7.97602E+00
# # energies = 67
#    E         xs
 1.000E-11 0.00000E+00
 2.530E-08 0.00000E+00
 2.000E-07 0.00000E+00
 1.000E-06 0.00000E+00
 1.000E-03 0.00000E+00
 2.000E-03 0.00000E+00
 5.000E-03 0.00000E+00
 1.000E-02 0.00000E+00
 2.000E-02 0.00000E+00
 5.000E-02 0.00000E+00
 1.000E-01 0.00000E+00
 2.000E-01 0.00000E+00
 3.000E-01 0.00000E+00
 4.000E-01 0.00000E+00
 5.000E-01 0.00000E+00
 7.500E-01 0.00000E+00
 1.000E+00 0.00000E+00
 1.200E+00 0.00000E+00
 1.400E+00 0.00000E+00
 1.600E+00 0.00000E+00
 1.800E+00 0.00000E+00
 2.000E+00 0.00000E+00
 2.200E+00 0.00000E+00
 2.400E+00 0.00000E+00
 2.600E+00 0.00000E+00
 2.800E+00 0.00000E+00
 3.000E+00 0.00000E+00
 3.200E+00 0.00000E+00
 3.400E+00 0.00000E+00
 3.600E+00 0.00000E+00
 3.800E+00 0.00000E+00
 4.000E+00 0.00000E+00
 4.200E+00 0.00000E+00
 4.400E+00 0.00000E+00
 4.600E+00 0.00000E+00
 4.800E+00 0.00000E+00
 5.000E+00 0.00000E+00
 5.500E+00 0.00000E+00
 6.000E+00 0.00000E+00
 6.500E+00 0.00000E+00
 7.000E+00 0.00000E+00
 7.500E+00 0.00000E+00
 8.000E+00 5.83064E-01
 8.500E+00 1.32647E+02
 9.000E+00 3.94786E+02
 9.500E+00 5.97001E+02
 1.000E+01 6.93336E+02
 1.100E+01 7.60220E+02
 1.200E+01 7.46565E+02
 1.300E+01 7.29868E+02
 1.400E+01 7.11073E+02
 1.500E+01 6.84288E+02
 1.600E+01 6.24730E+02
 1.700E+01 5.20827E+02
 1.800E+01 4.00119E+02
 1.900E+01 2.98650E+02
 2.000E+01 2.26594E+02
 2.100E+01 1.77032E+02
 2.200E+01 1.48712E+02
 2.300E+01 1.28579E+02
 2.400E+01 1.16349E+02
 2.500E+01 1.06816E+02
 2.600E+01 9.93455E+01
 2.700E+01 9.33119E+01
 2.800E+01 8.86706E+01
 2.900E+01 8.19993E+01
 3.000E+01 7.96664E+01
