# n + 208Pb: Gamma-ray intensity - 209Pb: Level  3 --> Level  0 - gamma energy    1.567090
# E-initial  =   1.567090 E-final=   0.000000
# E-threshold= 0.00000E+00
# # energies =    67
#    E           xs
 1.00000E-11 0.00000E+00
 2.53000E-08 0.00000E+00
 2.00000E-07 0.00000E+00
 1.00000E-06 2.47256E+02
 1.00000E-03 1.31832E+00
 2.00000E-03 7.82691E-01
 5.00000E-03 4.24216E-01
 1.00000E-02 2.53151E-01
 2.00000E-02 1.41369E-01
 5.00000E-02 7.56028E-02
 1.00000E-01 5.08889E-02
 2.00000E-01 3.63161E-02
 3.00000E-01 3.14230E-02
 4.00000E-01 2.94902E-02
 5.00000E-01 2.90214E-02
 7.50000E-01 3.11636E-02
 1.00000E+00 3.62738E-02
 1.20000E+00 4.21337E-02
 1.40000E+00 4.93098E-02
 1.60000E+00 5.83953E-02
 1.80000E+00 6.93395E-02
 2.00000E+00 8.23555E-02
 2.20000E+00 9.88668E-02
 2.40000E+00 1.17823E-01
 2.60000E+00 1.39223E-01
 2.80000E+00 1.21522E-01
 3.00000E+00 1.21717E-01
 3.20000E+00 1.29996E-01
 3.40000E+00 1.36575E-01
 3.60000E+00 1.44908E-01
 3.80000E+00 1.49383E-01
 4.00000E+00 1.57405E-01
 4.20000E+00 1.47635E-01
 4.40000E+00 1.20298E-01
 4.60000E+00 1.04814E-01
 4.80000E+00 1.05152E-01
 5.00000E+00 9.65330E-02
 5.50000E+00 7.94428E-02
 6.00000E+00 7.08268E-02
 6.50000E+00 7.23720E-02
 7.00000E+00 8.39629E-02
 7.50000E+00 1.08334E-01
 8.00000E+00 1.55851E-01
 8.50000E+00 2.37883E-01
 9.00000E+00 3.63881E-01
 9.50000E+00 5.16886E-01
 1.00000E+01 6.25608E-01
 1.10000E+01 5.79924E-01
 1.20000E+01 4.03265E-01
 1.30000E+01 2.74587E-01
 1.40000E+01 2.06145E-01
 1.50000E+01 1.65375E-01
 1.60000E+01 1.40582E-01
 1.70000E+01 1.30225E-01
 1.80000E+01 1.19613E-01
 1.90000E+01 1.12692E-01
 2.00000E+01 1.05174E-01
 2.10000E+01 9.56098E-02
 2.20000E+01 8.69278E-02
 2.30000E+01 8.23256E-02
 2.40000E+01 7.47952E-02
 2.50000E+01 7.13328E-02
 2.60000E+01 6.68121E-02
 2.70000E+01 6.43726E-02
 2.80000E+01 6.16396E-02
 2.90000E+01 5.88876E-02
 3.00000E+01 5.72829E-02
