# n + 208Pb: Gamma-ray intensity - 208Pb: Level  8 --> Level  1 - gamma energy    1.380916
# E-initial  =   3.995438 E-final=   2.614522
# E-threshold= 4.01482E+00
# # energies =    67
#    E           xs
 1.00000E-11 0.00000E+00
 2.53000E-08 0.00000E+00
 2.00000E-07 0.00000E+00
 1.00000E-06 0.00000E+00
 1.00000E-03 0.00000E+00
 2.00000E-03 0.00000E+00
 5.00000E-03 0.00000E+00
 1.00000E-02 0.00000E+00
 2.00000E-02 0.00000E+00
 5.00000E-02 0.00000E+00
 1.00000E-01 0.00000E+00
 2.00000E-01 0.00000E+00
 3.00000E-01 0.00000E+00
 4.00000E-01 0.00000E+00
 5.00000E-01 0.00000E+00
 7.50000E-01 0.00000E+00
 1.00000E+00 0.00000E+00
 1.20000E+00 0.00000E+00
 1.40000E+00 0.00000E+00
 1.60000E+00 0.00000E+00
 1.80000E+00 0.00000E+00
 2.00000E+00 0.00000E+00
 2.20000E+00 0.00000E+00
 2.40000E+00 0.00000E+00
 2.60000E+00 0.00000E+00
 2.80000E+00 0.00000E+00
 3.00000E+00 0.00000E+00
 3.20000E+00 0.00000E+00
 3.40000E+00 0.00000E+00
 3.60000E+00 0.00000E+00
 3.80000E+00 0.00000E+00
 4.00000E+00 0.00000E+00
 4.20000E+00 4.99160E+01
 4.40000E+00 7.08237E+01
 4.60000E+00 7.89159E+01
 4.80000E+00 8.09984E+01
 5.00000E+00 7.96209E+01
 5.50000E+00 7.27518E+01
 6.00000E+00 6.64120E+01
 6.50000E+00 6.14371E+01
 7.00000E+00 5.82088E+01
 7.50000E+00 5.63788E+01
 8.00000E+00 5.21493E+01
 8.50000E+00 4.43003E+01
 9.00000E+00 3.53213E+01
 9.50000E+00 2.65012E+01
 1.00000E+01 1.92307E+01
 1.10000E+01 9.75033E+00
 1.20000E+01 5.53628E+00
 1.30000E+01 3.73473E+00
 1.40000E+01 2.96665E+00
 1.50000E+01 2.57638E+00
 1.60000E+01 2.31641E+00
 1.70000E+01 2.17102E+00
 1.80000E+01 1.98958E+00
 1.90000E+01 1.84607E+00
 2.00000E+01 1.72656E+00
 2.10000E+01 1.62733E+00
 2.20000E+01 1.51835E+00
 2.30000E+01 1.43278E+00
 2.40000E+01 1.34693E+00
 2.50000E+01 1.23641E+00
 2.60000E+01 1.15957E+00
 2.70000E+01 1.10799E+00
 2.80000E+01 1.05218E+00
 2.90000E+01 1.00603E+00
 3.00000E+01 9.61566E-01
