# n + 208Pb: Gamma-ray intensity - 208Pb: Level 21 --> Level  1 - gamma energy    1.744148
# E-initial  =   4.358670 E-final=   2.614522
# E-threshold= 4.37981E+00
# # energies =    67
#    E           xs
 1.00000E-11 0.00000E+00
 2.53000E-08 0.00000E+00
 2.00000E-07 0.00000E+00
 1.00000E-06 0.00000E+00
 1.00000E-03 0.00000E+00
 2.00000E-03 0.00000E+00
 5.00000E-03 0.00000E+00
 1.00000E-02 0.00000E+00
 2.00000E-02 0.00000E+00
 5.00000E-02 0.00000E+00
 1.00000E-01 0.00000E+00
 2.00000E-01 0.00000E+00
 3.00000E-01 0.00000E+00
 4.00000E-01 0.00000E+00
 5.00000E-01 0.00000E+00
 7.50000E-01 0.00000E+00
 1.00000E+00 0.00000E+00
 1.20000E+00 0.00000E+00
 1.40000E+00 0.00000E+00
 1.60000E+00 0.00000E+00
 1.80000E+00 0.00000E+00
 2.00000E+00 0.00000E+00
 2.20000E+00 0.00000E+00
 2.40000E+00 0.00000E+00
 2.60000E+00 0.00000E+00
 2.80000E+00 0.00000E+00
 3.00000E+00 0.00000E+00
 3.20000E+00 0.00000E+00
 3.40000E+00 0.00000E+00
 3.60000E+00 0.00000E+00
 3.80000E+00 0.00000E+00
 4.00000E+00 0.00000E+00
 4.20000E+00 0.00000E+00
 4.40000E+00 1.05097E+00
 4.60000E+00 3.73209E+00
 4.80000E+00 5.28571E+00
 5.00000E+00 5.98607E+00
 5.50000E+00 5.79289E+00
 6.00000E+00 5.11866E+00
 6.50000E+00 4.61610E+00
 7.00000E+00 4.22906E+00
 7.50000E+00 3.97234E+00
 8.00000E+00 3.60640E+00
 8.50000E+00 3.03122E+00
 9.00000E+00 2.39725E+00
 9.50000E+00 1.78523E+00
 1.00000E+01 1.28388E+00
 1.10000E+01 6.38310E-01
 1.20000E+01 3.54627E-01
 1.30000E+01 2.34454E-01
 1.40000E+01 1.83764E-01
 1.50000E+01 1.58960E-01
 1.60000E+01 1.43182E-01
 1.70000E+01 1.35036E-01
 1.80000E+01 1.24697E-01
 1.90000E+01 1.16361E-01
 2.00000E+01 1.09690E-01
 2.10000E+01 1.04090E-01
 2.20000E+01 9.79031E-02
 2.30000E+01 9.31790E-02
 2.40000E+01 8.80564E-02
 2.50000E+01 8.21207E-02
 2.60000E+01 7.74511E-02
 2.70000E+01 7.44166E-02
 2.80000E+01 7.04228E-02
 2.90000E+01 6.76136E-02
 3.00000E+01 6.49507E-02
