# n + 208Pb: Gamma-ray intensity - 208Pb: Level 30 --> Level  3 - gamma energy    1.236739
# E-initial  =   4.711817 E-final=   3.475078
# E-threshold= 4.73467E+00
# # energies =    67
#    E           xs
 1.00000E-11 0.00000E+00
 2.53000E-08 0.00000E+00
 2.00000E-07 0.00000E+00
 1.00000E-06 0.00000E+00
 1.00000E-03 0.00000E+00
 2.00000E-03 0.00000E+00
 5.00000E-03 0.00000E+00
 1.00000E-02 0.00000E+00
 2.00000E-02 0.00000E+00
 5.00000E-02 0.00000E+00
 1.00000E-01 0.00000E+00
 2.00000E-01 0.00000E+00
 3.00000E-01 0.00000E+00
 4.00000E-01 0.00000E+00
 5.00000E-01 0.00000E+00
 7.50000E-01 0.00000E+00
 1.00000E+00 0.00000E+00
 1.20000E+00 0.00000E+00
 1.40000E+00 0.00000E+00
 1.60000E+00 0.00000E+00
 1.80000E+00 0.00000E+00
 2.00000E+00 0.00000E+00
 2.20000E+00 0.00000E+00
 2.40000E+00 0.00000E+00
 2.60000E+00 0.00000E+00
 2.80000E+00 0.00000E+00
 3.00000E+00 0.00000E+00
 3.20000E+00 0.00000E+00
 3.40000E+00 0.00000E+00
 3.60000E+00 0.00000E+00
 3.80000E+00 0.00000E+00
 4.00000E+00 0.00000E+00
 4.20000E+00 0.00000E+00
 4.40000E+00 0.00000E+00
 4.60000E+00 0.00000E+00
 4.80000E+00 2.71333E+00
 5.00000E+00 6.04940E+00
 5.50000E+00 8.88520E+00
 6.00000E+00 8.02368E+00
 6.50000E+00 7.10461E+00
 7.00000E+00 6.40478E+00
 7.50000E+00 5.82654E+00
 8.00000E+00 5.13434E+00
 8.50000E+00 4.23191E+00
 9.00000E+00 3.30178E+00
 9.50000E+00 2.43731E+00
 1.00000E+01 1.73638E+00
 1.10000E+01 8.46970E-01
 1.20000E+01 4.61156E-01
 1.30000E+01 2.99866E-01
 1.40000E+01 2.32359E-01
 1.50000E+01 2.00908E-01
 1.60000E+01 1.82298E-01
 1.70000E+01 1.74139E-01
 1.80000E+01 1.63494E-01
 1.90000E+01 1.54466E-01
 2.00000E+01 1.48098E-01
 2.10000E+01 1.42499E-01
 2.20000E+01 1.36034E-01
 2.30000E+01 1.31469E-01
 2.40000E+01 1.25542E-01
 2.50000E+01 1.19297E-01
 2.60000E+01 1.13991E-01
 2.70000E+01 1.10619E-01
 2.80000E+01 1.04296E-01
 2.90000E+01 1.00775E-01
 3.00000E+01 9.75689E-02
