# n + 208Pb: Gamma-ray intensity - 208Pb: Level 16 --> Level  0 - gamma energy    4.229590
# E-initial  =   4.229590 E-final=   0.000000
# E-threshold= 4.25010E+00
# # energies = 67
#    E         xs
 1.000E-11 0.00000E+00
 2.530E-08 0.00000E+00
 2.000E-07 0.00000E+00
 1.000E-06 0.00000E+00
 1.000E-03 0.00000E+00
 2.000E-03 0.00000E+00
 5.000E-03 0.00000E+00
 1.000E-02 0.00000E+00
 2.000E-02 0.00000E+00
 5.000E-02 0.00000E+00
 1.000E-01 0.00000E+00
 2.000E-01 0.00000E+00
 3.000E-01 0.00000E+00
 4.000E-01 0.00000E+00
 5.000E-01 0.00000E+00
 7.500E-01 0.00000E+00
 1.000E+00 0.00000E+00
 1.200E+00 0.00000E+00
 1.400E+00 0.00000E+00
 1.600E+00 0.00000E+00
 1.800E+00 0.00000E+00
 2.000E+00 0.00000E+00
 2.200E+00 0.00000E+00
 2.400E+00 0.00000E+00
 2.600E+00 0.00000E+00
 2.800E+00 0.00000E+00
 3.000E+00 0.00000E+00
 3.200E+00 0.00000E+00
 3.400E+00 0.00000E+00
 3.600E+00 0.00000E+00
 3.800E+00 0.00000E+00
 4.000E+00 0.00000E+00
 4.200E+00 0.00000E+00
 4.400E+00 7.90807E+00
 4.600E+00 1.23829E+01
 4.800E+00 1.45798E+01
 5.000E+00 1.48993E+01
 5.500E+00 1.26727E+01
 6.000E+00 1.05547E+01
 6.500E+00 9.17996E+00
 7.000E+00 8.25590E+00
 7.500E+00 7.64913E+00
 8.000E+00 6.64835E+00
 8.500E+00 5.32460E+00
 9.000E+00 4.12209E+00
 9.500E+00 3.03460E+00
 1.000E+01 2.19774E+00
 1.100E+01 1.16886E+00
 1.200E+01 6.91639E-01
 1.300E+01 4.66830E-01
 1.400E+01 3.74737E-01
 1.500E+01 3.24728E-01
 1.600E+01 2.92566E-01
 1.700E+01 2.80209E-01
 1.800E+01 2.56320E-01
 1.900E+01 2.36786E-01
 2.000E+01 2.26856E-01
 2.100E+01 2.18352E-01
 2.200E+01 2.01395E-01
 2.300E+01 1.94737E-01
 2.400E+01 1.86777E-01
 2.500E+01 1.70961E-01
 2.600E+01 1.62250E-01
 2.700E+01 1.58172E-01
 2.800E+01 1.54375E-01
 2.900E+01 1.46344E-01
 3.000E+01 1.42164E-01
