# n + 208Pb: Gamma-ray intensity - 208Pb: Level 11 --> Level  0 - gamma energy    4.085520
# E-initial  =   4.085520 E-final=   0.000000
# E-threshold= 4.10533E+00
# # energies =    67
#    E           xs
 1.00000E-11 0.00000E+00
 2.53000E-08 0.00000E+00
 2.00000E-07 0.00000E+00
 1.00000E-06 0.00000E+00
 1.00000E-03 0.00000E+00
 2.00000E-03 0.00000E+00
 5.00000E-03 0.00000E+00
 1.00000E-02 0.00000E+00
 2.00000E-02 0.00000E+00
 5.00000E-02 0.00000E+00
 1.00000E-01 0.00000E+00
 2.00000E-01 0.00000E+00
 3.00000E-01 0.00000E+00
 4.00000E-01 0.00000E+00
 5.00000E-01 0.00000E+00
 7.50000E-01 0.00000E+00
 1.00000E+00 0.00000E+00
 1.20000E+00 0.00000E+00
 1.40000E+00 0.00000E+00
 1.60000E+00 0.00000E+00
 1.80000E+00 0.00000E+00
 2.00000E+00 0.00000E+00
 2.20000E+00 0.00000E+00
 2.40000E+00 0.00000E+00
 2.60000E+00 0.00000E+00
 2.80000E+00 0.00000E+00
 3.00000E+00 0.00000E+00
 3.20000E+00 0.00000E+00
 3.40000E+00 0.00000E+00
 3.60000E+00 0.00000E+00
 3.80000E+00 0.00000E+00
 4.00000E+00 0.00000E+00
 4.20000E+00 3.97886E+01
 4.40000E+00 8.65148E+01
 4.60000E+00 1.04422E+02
 4.80000E+00 1.09502E+02
 5.00000E+00 1.10353E+02
 5.50000E+00 1.12625E+02
 6.00000E+00 1.11590E+02
 6.50000E+00 1.01666E+02
 7.00000E+00 9.03465E+01
 7.50000E+00 8.16898E+01
 8.00000E+00 6.86507E+01
 8.50000E+00 5.31919E+01
 9.00000E+00 4.02520E+01
 9.50000E+00 2.87633E+01
 1.00000E+01 2.06807E+01
 1.10000E+01 1.08698E+01
 1.20000E+01 6.72951E+00
 1.30000E+01 4.87914E+00
 1.40000E+01 4.09060E+00
 1.50000E+01 3.62286E+00
 1.60000E+01 3.26293E+00
 1.70000E+01 3.11841E+00
 1.80000E+01 2.83247E+00
 1.90000E+01 2.62983E+00
 2.00000E+01 2.46009E+00
 2.10000E+01 2.35054E+00
 2.20000E+01 2.14750E+00
 2.30000E+01 2.05369E+00
 2.40000E+01 1.95999E+00
 2.50000E+01 1.75789E+00
 2.60000E+01 1.67321E+00
 2.70000E+01 1.62298E+00
 2.80000E+01 1.56289E+00
 2.90000E+01 1.47035E+00
 3.00000E+01 1.40476E+00
