# n + 208Pb: Gamma-ray intensity - 208Pb: Level 22 --> Level  5 - gamma energy    0.463319
# E-initial  =   4.383285 E-final=   3.919966
# E-threshold= 4.40454E+00
# # energies =    67
#    E           xs
 1.00000E-11 0.00000E+00
 2.53000E-08 0.00000E+00
 2.00000E-07 0.00000E+00
 1.00000E-06 0.00000E+00
 1.00000E-03 0.00000E+00
 2.00000E-03 0.00000E+00
 5.00000E-03 0.00000E+00
 1.00000E-02 0.00000E+00
 2.00000E-02 0.00000E+00
 5.00000E-02 0.00000E+00
 1.00000E-01 0.00000E+00
 2.00000E-01 0.00000E+00
 3.00000E-01 0.00000E+00
 4.00000E-01 0.00000E+00
 5.00000E-01 0.00000E+00
 7.50000E-01 0.00000E+00
 1.00000E+00 0.00000E+00
 1.20000E+00 0.00000E+00
 1.40000E+00 0.00000E+00
 1.60000E+00 0.00000E+00
 1.80000E+00 0.00000E+00
 2.00000E+00 0.00000E+00
 2.20000E+00 0.00000E+00
 2.40000E+00 0.00000E+00
 2.60000E+00 0.00000E+00
 2.80000E+00 0.00000E+00
 3.00000E+00 0.00000E+00
 3.20000E+00 0.00000E+00
 3.40000E+00 0.00000E+00
 3.60000E+00 0.00000E+00
 3.80000E+00 0.00000E+00
 4.00000E+00 0.00000E+00
 4.20000E+00 0.00000E+00
 4.40000E+00 0.00000E+00
 4.60000E+00 5.33902E-01
 4.80000E+00 8.28141E-01
 5.00000E+00 1.01626E+00
 5.50000E+00 1.17132E+00
 6.00000E+00 1.22092E+00
 6.50000E+00 1.29183E+00
 7.00000E+00 1.37630E+00
 7.50000E+00 1.48018E+00
 8.00000E+00 1.58043E+00
 8.50000E+00 1.60468E+00
 9.00000E+00 1.48443E+00
 9.50000E+00 1.26277E+00
 1.00000E+01 1.00161E+00
 1.10000E+01 5.62329E-01
 1.20000E+01 3.14837E-01
 1.30000E+01 2.04161E-01
 1.40000E+01 1.56164E-01
 1.50000E+01 1.34866E-01
 1.60000E+01 1.23173E-01
 1.70000E+01 1.16626E-01
 1.80000E+01 1.08431E-01
 1.90000E+01 1.01331E-01
 2.00000E+01 9.65581E-02
 2.10000E+01 9.16280E-02
 2.20000E+01 8.64037E-02
 2.30000E+01 8.24683E-02
 2.40000E+01 7.78167E-02
 2.50000E+01 7.25337E-02
 2.60000E+01 6.84930E-02
 2.70000E+01 6.42925E-02
 2.80000E+01 6.08990E-02
 2.90000E+01 5.83912E-02
 3.00000E+01 5.59642E-02
