# n + 208Pb: Gamma-ray intensity - 208Pb: Level 16 --> Level  0 - gamma energy    4.229590
# E-initial  =   4.229590 E-final=   0.000000
# E-threshold= 4.25010E+00
# # energies =    67
#    E           xs
 1.00000E-11 0.00000E+00
 2.53000E-08 0.00000E+00
 2.00000E-07 0.00000E+00
 1.00000E-06 0.00000E+00
 1.00000E-03 0.00000E+00
 2.00000E-03 0.00000E+00
 5.00000E-03 0.00000E+00
 1.00000E-02 0.00000E+00
 2.00000E-02 0.00000E+00
 5.00000E-02 0.00000E+00
 1.00000E-01 0.00000E+00
 2.00000E-01 0.00000E+00
 3.00000E-01 0.00000E+00
 4.00000E-01 0.00000E+00
 5.00000E-01 0.00000E+00
 7.50000E-01 0.00000E+00
 1.00000E+00 0.00000E+00
 1.20000E+00 0.00000E+00
 1.40000E+00 0.00000E+00
 1.60000E+00 0.00000E+00
 1.80000E+00 0.00000E+00
 2.00000E+00 0.00000E+00
 2.20000E+00 0.00000E+00
 2.40000E+00 0.00000E+00
 2.60000E+00 0.00000E+00
 2.80000E+00 0.00000E+00
 3.00000E+00 0.00000E+00
 3.20000E+00 0.00000E+00
 3.40000E+00 0.00000E+00
 3.60000E+00 0.00000E+00
 3.80000E+00 0.00000E+00
 4.00000E+00 0.00000E+00
 4.20000E+00 0.00000E+00
 4.40000E+00 7.90951E+00
 4.60000E+00 1.23849E+01
 4.80000E+00 1.45749E+01
 5.00000E+00 1.48408E+01
 5.50000E+00 1.24127E+01
 6.00000E+00 1.02255E+01
 6.50000E+00 8.86142E+00
 7.00000E+00 7.97057E+00
 7.50000E+00 7.38576E+00
 8.00000E+00 6.31714E+00
 8.50000E+00 4.89928E+00
 9.00000E+00 3.65981E+00
 9.50000E+00 2.58668E+00
 1.00000E+01 1.80175E+00
 1.10000E+01 8.95724E-01
 1.20000E+01 5.12753E-01
 1.30000E+01 3.45512E-01
 1.40000E+01 2.80128E-01
 1.50000E+01 2.44750E-01
 1.60000E+01 2.19131E-01
 1.70000E+01 2.13003E-01
 1.80000E+01 1.93386E-01
 1.90000E+01 1.78569E-01
 2.00000E+01 1.70460E-01
 2.10000E+01 1.65580E-01
 2.20000E+01 1.51134E-01
 2.30000E+01 1.46660E-01
 2.40000E+01 1.41184E-01
 2.50000E+01 1.27424E-01
 2.60000E+01 1.22201E-01
 2.70000E+01 1.19765E-01
 2.80000E+01 1.14914E-01
 2.90000E+01 1.07157E-01
 3.00000E+01 1.03561E-01
