# n + 208Pb: Gamma-ray intensity - 208Pb: Level 17 --> Level  1 - gamma energy    1.640270
# E-initial  =   4.254790 E-final=   2.614520
# E-threshold= 4.27543E+00
# # energies = 67
#    E         xs
 1.000E-11 0.00000E+00
 2.530E-08 0.00000E+00
 2.000E-07 0.00000E+00
 1.000E-06 0.00000E+00
 1.000E-03 0.00000E+00
 2.000E-03 0.00000E+00
 5.000E-03 0.00000E+00
 1.000E-02 0.00000E+00
 2.000E-02 0.00000E+00
 5.000E-02 0.00000E+00
 1.000E-01 0.00000E+00
 2.000E-01 0.00000E+00
 3.000E-01 0.00000E+00
 4.000E-01 0.00000E+00
 5.000E-01 0.00000E+00
 7.500E-01 0.00000E+00
 1.000E+00 0.00000E+00
 1.200E+00 0.00000E+00
 1.400E+00 0.00000E+00
 1.600E+00 0.00000E+00
 1.800E+00 0.00000E+00
 2.000E+00 0.00000E+00
 2.200E+00 0.00000E+00
 2.400E+00 0.00000E+00
 2.600E+00 0.00000E+00
 2.800E+00 0.00000E+00
 3.000E+00 0.00000E+00
 3.200E+00 0.00000E+00
 3.400E+00 0.00000E+00
 3.600E+00 0.00000E+00
 3.800E+00 0.00000E+00
 4.000E+00 0.00000E+00
 4.200E+00 0.00000E+00
 4.400E+00 3.84857E+01
 4.600E+00 6.37921E+01
 4.800E+00 7.94950E+01
 5.000E+00 8.57672E+01
 5.500E+00 8.04011E+01
 6.000E+00 7.10437E+01
 6.500E+00 6.42097E+01
 7.000E+00 5.89506E+01
 7.500E+00 5.50677E+01
 8.000E+00 4.86521E+01
 8.500E+00 3.98663E+01
 9.000E+00 3.15502E+01
 9.500E+00 2.38091E+01
 1.000E+01 1.76913E+01
 1.100E+01 9.89646E+00
 1.200E+01 6.26366E+00
 1.300E+01 4.55968E+00
 1.400E+01 3.81474E+00
 1.500E+01 3.39701E+00
 1.600E+01 3.11700E+00
 1.700E+01 2.96552E+00
 1.800E+01 2.77194E+00
 1.900E+01 2.61163E+00
 2.000E+01 2.50566E+00
 2.100E+01 2.40559E+00
 2.200E+01 2.27039E+00
 2.300E+01 2.18558E+00
 2.400E+01 2.09345E+00
 2.500E+01 1.97037E+00
 2.600E+01 1.88312E+00
 2.700E+01 1.83002E+00
 2.800E+01 1.78052E+00
 2.900E+01 1.71749E+00
 3.000E+01 1.66981E+00
