# n + 208Pb: Gamma-ray intensity - 207Pb: Level  1 --> Level  0 - gamma energy    0.569703
# E-initial  =   0.569703 E-final=   0.000000
# E-threshold= 1.57246E+00
# # energies = 66
#    E         xs
 1.000E-11 0.00000E+00
 2.530E-08 0.00000E+00
 1.000E-06 0.00000E+00
 1.000E-03 0.00000E+00
 2.000E-03 0.00000E+00
 5.000E-03 0.00000E+00
 1.000E-02 0.00000E+00
 2.000E-02 0.00000E+00
 5.000E-02 0.00000E+00
 1.000E-01 0.00000E+00
 2.000E-01 0.00000E+00
 3.000E-01 0.00000E+00
 4.000E-01 0.00000E+00
 5.000E-01 0.00000E+00
 7.500E-01 0.00000E+00
 1.000E+00 0.00000E+00
 1.200E+00 0.00000E+00
 1.400E+00 0.00000E+00
 1.600E+00 0.00000E+00
 1.800E+00 0.00000E+00
 2.000E+00 0.00000E+00
 2.200E+00 0.00000E+00
 2.400E+00 0.00000E+00
 2.600E+00 0.00000E+00
 2.800E+00 0.00000E+00
 3.000E+00 0.00000E+00
 3.200E+00 0.00000E+00
 3.400E+00 0.00000E+00
 3.600E+00 0.00000E+00
 3.800E+00 0.00000E+00
 4.000E+00 0.00000E+00
 4.200E+00 0.00000E+00
 4.400E+00 0.00000E+00
 4.600E+00 0.00000E+00
 4.800E+00 0.00000E+00
 5.000E+00 0.00000E+00
 5.500E+00 0.00000E+00
 6.000E+00 0.00000E+00
 6.500E+00 0.00000E+00
 7.000E+00 0.00000E+00
 7.500E+00 0.00000E+00
 8.000E+00 4.49520E-01
 8.500E+00 1.10943E+02
 9.000E+00 3.52430E+02
 9.500E+00 5.58343E+02
 1.000E+01 6.74391E+02
 1.100E+01 7.75062E+02
 1.200E+01 7.69666E+02
 1.300E+01 7.54459E+02
 1.400E+01 7.38585E+02
 1.500E+01 7.13694E+02
 1.600E+01 6.48412E+02
 1.700E+01 5.33599E+02
 1.800E+01 4.01649E+02
 1.900E+01 2.95423E+02
 2.000E+01 2.23370E+02
 2.100E+01 1.75460E+02
 2.200E+01 1.49860E+02
 2.300E+01 1.31400E+02
 2.400E+01 1.20361E+02
 2.500E+01 1.11072E+02
 2.600E+01 1.03013E+02
 2.700E+01 9.73220E+01
 2.800E+01 9.20574E+01
 2.900E+01 8.52581E+01
 3.000E+01 8.34341E+01
