# n + 208Pb: Gamma-ray intensity - 208Pb: Level 21 --> Level  8 - gamma energy    0.363232
# E-initial  =   4.358670 E-final=   3.995438
# E-threshold= 4.37981E+00
# # energies =    67
#    E           xs
 1.00000E-11 0.00000E+00
 2.53000E-08 0.00000E+00
 2.00000E-07 0.00000E+00
 1.00000E-06 0.00000E+00
 1.00000E-03 0.00000E+00
 2.00000E-03 0.00000E+00
 5.00000E-03 0.00000E+00
 1.00000E-02 0.00000E+00
 2.00000E-02 0.00000E+00
 5.00000E-02 0.00000E+00
 1.00000E-01 0.00000E+00
 2.00000E-01 0.00000E+00
 3.00000E-01 0.00000E+00
 4.00000E-01 0.00000E+00
 5.00000E-01 0.00000E+00
 7.50000E-01 0.00000E+00
 1.00000E+00 0.00000E+00
 1.20000E+00 0.00000E+00
 1.40000E+00 0.00000E+00
 1.60000E+00 0.00000E+00
 1.80000E+00 0.00000E+00
 2.00000E+00 0.00000E+00
 2.20000E+00 0.00000E+00
 2.40000E+00 0.00000E+00
 2.60000E+00 0.00000E+00
 2.80000E+00 0.00000E+00
 3.00000E+00 0.00000E+00
 3.20000E+00 0.00000E+00
 3.40000E+00 0.00000E+00
 3.60000E+00 0.00000E+00
 3.80000E+00 0.00000E+00
 4.00000E+00 0.00000E+00
 4.20000E+00 0.00000E+00
 4.40000E+00 1.89841E-01
 4.60000E+00 6.74145E-01
 4.80000E+00 9.54782E-01
 5.00000E+00 1.08129E+00
 5.50000E+00 1.04640E+00
 6.00000E+00 9.24608E-01
 6.50000E+00 8.33828E-01
 7.00000E+00 7.63916E-01
 7.50000E+00 7.17543E-01
 8.00000E+00 6.51442E-01
 8.50000E+00 5.47544E-01
 9.00000E+00 4.33026E-01
 9.50000E+00 3.22474E-01
 1.00000E+01 2.31913E-01
 1.10000E+01 1.15301E-01
 1.20000E+01 6.40579E-02
 1.30000E+01 4.23505E-02
 1.40000E+01 3.31941E-02
 1.50000E+01 2.87138E-02
 1.60000E+01 2.58637E-02
 1.70000E+01 2.43922E-02
 1.80000E+01 2.25245E-02
 1.90000E+01 2.10189E-02
 2.00000E+01 1.98139E-02
 2.10000E+01 1.88023E-02
 2.20000E+01 1.76847E-02
 2.30000E+01 1.68314E-02
 2.40000E+01 1.59060E-02
 2.50000E+01 1.48339E-02
 2.60000E+01 1.39904E-02
 2.70000E+01 1.34422E-02
 2.80000E+01 1.27208E-02
 2.90000E+01 1.22134E-02
 3.00000E+01 1.17324E-02
