# n + 208Pb: Gamma-ray intensity - 207Pb: Level 10 --> Level  2 - gamma energy    2.011302
# E-initial  =   2.909000 E-final=   0.897698
# E-threshold= 1.03267E+01
# # energies =    67
#    E           xs
 1.00000E-11 0.00000E+00
 2.53000E-08 0.00000E+00
 2.00000E-07 0.00000E+00
 1.00000E-06 0.00000E+00
 1.00000E-03 0.00000E+00
 2.00000E-03 0.00000E+00
 5.00000E-03 0.00000E+00
 1.00000E-02 0.00000E+00
 2.00000E-02 0.00000E+00
 5.00000E-02 0.00000E+00
 1.00000E-01 0.00000E+00
 2.00000E-01 0.00000E+00
 3.00000E-01 0.00000E+00
 4.00000E-01 0.00000E+00
 5.00000E-01 0.00000E+00
 7.50000E-01 0.00000E+00
 1.00000E+00 0.00000E+00
 1.20000E+00 0.00000E+00
 1.40000E+00 0.00000E+00
 1.60000E+00 0.00000E+00
 1.80000E+00 0.00000E+00
 2.00000E+00 0.00000E+00
 2.20000E+00 0.00000E+00
 2.40000E+00 0.00000E+00
 2.60000E+00 0.00000E+00
 2.80000E+00 0.00000E+00
 3.00000E+00 0.00000E+00
 3.20000E+00 0.00000E+00
 3.40000E+00 0.00000E+00
 3.60000E+00 0.00000E+00
 3.80000E+00 0.00000E+00
 4.00000E+00 0.00000E+00
 4.20000E+00 0.00000E+00
 4.40000E+00 0.00000E+00
 4.60000E+00 0.00000E+00
 4.80000E+00 0.00000E+00
 5.00000E+00 0.00000E+00
 5.50000E+00 0.00000E+00
 6.00000E+00 0.00000E+00
 6.50000E+00 0.00000E+00
 7.00000E+00 0.00000E+00
 7.50000E+00 0.00000E+00
 8.00000E+00 0.00000E+00
 8.50000E+00 0.00000E+00
 9.00000E+00 0.00000E+00
 9.50000E+00 0.00000E+00
 1.00000E+01 0.00000E+00
 1.10000E+01 1.34906E+00
 1.20000E+01 7.02689E+00
 1.30000E+01 1.21021E+01
 1.40000E+01 1.39516E+01
 1.50000E+01 1.38413E+01
 1.60000E+01 1.31817E+01
 1.70000E+01 1.25872E+01
 1.80000E+01 1.18419E+01
 1.90000E+01 1.04010E+01
 2.00000E+01 8.80512E+00
 2.10000E+01 7.17971E+00
 2.20000E+01 6.08724E+00
 2.30000E+01 5.25935E+00
 2.40000E+01 4.76244E+00
 2.50000E+01 4.45736E+00
 2.60000E+01 4.23232E+00
 2.70000E+01 4.07101E+00
 2.80000E+01 4.03427E+00
 2.90000E+01 3.89950E+00
 3.00000E+01 3.83506E+00
