# n + 208Pb: Gamma-ray intensity - 208Pb: Level 16 --> Level  0 - gamma energy    4.159000
# E-initial  =   4.159000 E-final=   0.000000
# E-threshold= 4.17917E+00
# # energies = 67
#    E         xs
 1.000E-11 0.00000E+00
 2.530E-08 0.00000E+00
 2.000E-07 0.00000E+00
 1.000E-06 0.00000E+00
 1.000E-03 0.00000E+00
 2.000E-03 0.00000E+00
 5.000E-03 0.00000E+00
 1.000E-02 0.00000E+00
 2.000E-02 0.00000E+00
 5.000E-02 0.00000E+00
 1.000E-01 0.00000E+00
 2.000E-01 0.00000E+00
 3.000E-01 0.00000E+00
 4.000E-01 0.00000E+00
 5.000E-01 0.00000E+00
 7.500E-01 0.00000E+00
 1.000E+00 0.00000E+00
 1.200E+00 0.00000E+00
 1.400E+00 0.00000E+00
 1.600E+00 0.00000E+00
 1.800E+00 0.00000E+00
 2.000E+00 0.00000E+00
 2.200E+00 0.00000E+00
 2.400E+00 0.00000E+00
 2.600E+00 0.00000E+00
 2.800E+00 0.00000E+00
 3.000E+00 0.00000E+00
 3.200E+00 0.00000E+00
 3.400E+00 0.00000E+00
 3.600E+00 0.00000E+00
 3.800E+00 0.00000E+00
 4.000E+00 0.00000E+00
 4.200E+00 5.56045E+00
 4.400E+00 2.80437E+01
 4.600E+00 3.43053E+01
 4.800E+00 3.43579E+01
 5.000E+00 3.32968E+01
 5.500E+00 3.09425E+01
 6.000E+00 2.78801E+01
 6.500E+00 2.43547E+01
 7.000E+00 2.16507E+01
 7.500E+00 1.98288E+01
 8.000E+00 1.64085E+01
 8.500E+00 1.24545E+01
 9.000E+00 9.18616E+00
 9.500E+00 6.82504E+00
 1.000E+01 5.03656E+00
 1.100E+01 3.12732E+00
 1.200E+01 2.34414E+00
 1.300E+01 1.94062E+00
 1.400E+01 1.73189E+00
 1.500E+01 1.59452E+00
 1.600E+01 1.50944E+00
 1.700E+01 1.47244E+00
 1.800E+01 1.42631E+00
 1.900E+01 1.36915E+00
 2.000E+01 1.34761E+00
 2.100E+01 1.29999E+00
 2.200E+01 1.27711E+00
 2.300E+01 1.22667E+00
 2.400E+01 1.20326E+00
 2.500E+01 1.16928E+00
 2.600E+01 1.11731E+00
 2.700E+01 1.09277E+00
 2.800E+01 1.06782E+00
 2.900E+01 1.05215E+00
 3.000E+01 1.01840E+00
