# n + 208Pb: Gamma-ray intensity - 208Pb: Level 28 --> Level  0 - gamma energy    4.698323
# E-initial  =   4.698323 E-final=   0.000000
# E-threshold= 4.72111E+00
# # energies =    67
#    E           xs
 1.00000E-11 0.00000E+00
 2.53000E-08 0.00000E+00
 2.00000E-07 0.00000E+00
 1.00000E-06 0.00000E+00
 1.00000E-03 0.00000E+00
 2.00000E-03 0.00000E+00
 5.00000E-03 0.00000E+00
 1.00000E-02 0.00000E+00
 2.00000E-02 0.00000E+00
 5.00000E-02 0.00000E+00
 1.00000E-01 0.00000E+00
 2.00000E-01 0.00000E+00
 3.00000E-01 0.00000E+00
 4.00000E-01 0.00000E+00
 5.00000E-01 0.00000E+00
 7.50000E-01 0.00000E+00
 1.00000E+00 0.00000E+00
 1.20000E+00 0.00000E+00
 1.40000E+00 0.00000E+00
 1.60000E+00 0.00000E+00
 1.80000E+00 0.00000E+00
 2.00000E+00 0.00000E+00
 2.20000E+00 0.00000E+00
 2.40000E+00 0.00000E+00
 2.60000E+00 0.00000E+00
 2.80000E+00 0.00000E+00
 3.00000E+00 0.00000E+00
 3.20000E+00 0.00000E+00
 3.40000E+00 0.00000E+00
 3.60000E+00 0.00000E+00
 3.80000E+00 0.00000E+00
 4.00000E+00 0.00000E+00
 4.20000E+00 0.00000E+00
 4.40000E+00 0.00000E+00
 4.60000E+00 0.00000E+00
 4.80000E+00 2.70522E-01
 5.00000E+00 5.70681E-01
 5.50000E+00 7.86138E-01
 6.00000E+00 6.95416E-01
 6.50000E+00 6.15322E-01
 7.00000E+00 5.56653E-01
 7.50000E+00 5.06883E-01
 8.00000E+00 4.34165E-01
 8.50000E+00 3.44220E-01
 9.00000E+00 2.65100E-01
 9.50000E+00 1.96616E-01
 1.00000E+01 1.44803E-01
 1.10000E+01 8.33886E-02
 1.20000E+01 5.68085E-02
 1.30000E+01 4.51081E-02
 1.40000E+01 3.99860E-02
 1.50000E+01 3.69045E-02
 1.60000E+01 3.45143E-02
 1.70000E+01 3.32848E-02
 1.80000E+01 3.16966E-02
 1.90000E+01 3.04062E-02
 2.00000E+01 2.95605E-02
 2.10000E+01 2.87754E-02
 2.20000E+01 2.75549E-02
 2.30000E+01 2.67417E-02
 2.40000E+01 2.58233E-02
 2.50000E+01 2.47006E-02
 2.60000E+01 2.39721E-02
 2.70000E+01 2.34437E-02
 2.80000E+01 2.26962E-02
 2.90000E+01 2.19834E-02
 3.00000E+01 2.14521E-02
