# n + 208Pb: Gamma-ray intensity - 208Pb: Level 18 --> Level  1 - gamma energy    1.647349
# E-initial  =   4.261871 E-final=   2.614522
# E-threshold= 4.28254E+00
# # energies =    67
#    E           xs
 1.00000E-11 0.00000E+00
 2.53000E-08 0.00000E+00
 2.00000E-07 0.00000E+00
 1.00000E-06 0.00000E+00
 1.00000E-03 0.00000E+00
 2.00000E-03 0.00000E+00
 5.00000E-03 0.00000E+00
 1.00000E-02 0.00000E+00
 2.00000E-02 0.00000E+00
 5.00000E-02 0.00000E+00
 1.00000E-01 0.00000E+00
 2.00000E-01 0.00000E+00
 3.00000E-01 0.00000E+00
 4.00000E-01 0.00000E+00
 5.00000E-01 0.00000E+00
 7.50000E-01 0.00000E+00
 1.00000E+00 0.00000E+00
 1.20000E+00 0.00000E+00
 1.40000E+00 0.00000E+00
 1.60000E+00 0.00000E+00
 1.80000E+00 0.00000E+00
 2.00000E+00 0.00000E+00
 2.20000E+00 0.00000E+00
 2.40000E+00 0.00000E+00
 2.60000E+00 0.00000E+00
 2.80000E+00 0.00000E+00
 3.00000E+00 0.00000E+00
 3.20000E+00 0.00000E+00
 3.40000E+00 0.00000E+00
 3.60000E+00 0.00000E+00
 3.80000E+00 0.00000E+00
 4.00000E+00 0.00000E+00
 4.20000E+00 0.00000E+00
 4.40000E+00 1.48904E+01
 4.60000E+00 2.58012E+01
 4.80000E+00 3.21539E+01
 5.00000E+00 3.44747E+01
 5.50000E+00 3.23446E+01
 6.00000E+00 2.87832E+01
 6.50000E+00 2.60989E+01
 7.00000E+00 2.40953E+01
 7.50000E+00 2.28261E+01
 8.00000E+00 2.08298E+01
 8.50000E+00 1.75498E+01
 9.00000E+00 1.39075E+01
 9.50000E+00 1.03769E+01
 1.00000E+01 7.48354E+00
 1.10000E+01 3.74927E+00
 1.20000E+01 2.10356E+00
 1.30000E+01 1.40409E+00
 1.40000E+01 1.10807E+00
 1.50000E+01 9.61114E-01
 1.60000E+01 8.65838E-01
 1.70000E+01 8.15365E-01
 1.80000E+01 7.51525E-01
 1.90000E+01 7.00416E-01
 2.00000E+01 6.59045E-01
 2.10000E+01 6.24467E-01
 2.20000E+01 5.86037E-01
 2.30000E+01 5.56529E-01
 2.40000E+01 5.25384E-01
 2.50000E+01 4.88085E-01
 2.60000E+01 4.59830E-01
 2.70000E+01 4.41306E-01
 2.80000E+01 4.18440E-01
 2.90000E+01 4.01339E-01
 3.00000E+01 3.85150E-01
