# n + 208Pb: Gamma-ray intensity - 208Pb: Level 27 --> Level 15 - gamma energy    0.473989
# E-initial  =   4.680266 E-final=   4.206277
# E-threshold= 4.70296E+00
# # energies =    67
#    E           xs
 1.00000E-11 0.00000E+00
 2.53000E-08 0.00000E+00
 2.00000E-07 0.00000E+00
 1.00000E-06 0.00000E+00
 1.00000E-03 0.00000E+00
 2.00000E-03 0.00000E+00
 5.00000E-03 0.00000E+00
 1.00000E-02 0.00000E+00
 2.00000E-02 0.00000E+00
 5.00000E-02 0.00000E+00
 1.00000E-01 0.00000E+00
 2.00000E-01 0.00000E+00
 3.00000E-01 0.00000E+00
 4.00000E-01 0.00000E+00
 5.00000E-01 0.00000E+00
 7.50000E-01 0.00000E+00
 1.00000E+00 0.00000E+00
 1.20000E+00 0.00000E+00
 1.40000E+00 0.00000E+00
 1.60000E+00 0.00000E+00
 1.80000E+00 0.00000E+00
 2.00000E+00 0.00000E+00
 2.20000E+00 0.00000E+00
 2.40000E+00 0.00000E+00
 2.60000E+00 0.00000E+00
 2.80000E+00 0.00000E+00
 3.00000E+00 0.00000E+00
 3.20000E+00 0.00000E+00
 3.40000E+00 0.00000E+00
 3.60000E+00 0.00000E+00
 3.80000E+00 0.00000E+00
 4.00000E+00 0.00000E+00
 4.20000E+00 0.00000E+00
 4.40000E+00 0.00000E+00
 4.60000E+00 0.00000E+00
 4.80000E+00 2.43985E-01
 5.00000E+00 1.02357E+00
 5.50000E+00 2.57028E+00
 6.00000E+00 3.37051E+00
 6.50000E+00 4.26315E+00
 7.00000E+00 5.24752E+00
 7.50000E+00 6.24135E+00
 8.00000E+00 7.21940E+00
 8.50000E+00 7.98442E+00
 9.00000E+00 8.11037E+00
 9.50000E+00 7.51408E+00
 1.00000E+01 6.41366E+00
 1.10000E+01 4.06921E+00
 1.20000E+01 2.44383E+00
 1.30000E+01 1.65440E+00
 1.40000E+01 1.30480E+00
 1.50000E+01 1.14736E+00
 1.60000E+01 1.06734E+00
 1.70000E+01 1.02407E+00
 1.80000E+01 9.68642E-01
 1.90000E+01 9.18644E-01
 2.00000E+01 8.91695E-01
 2.10000E+01 8.54440E-01
 2.20000E+01 8.15783E-01
 2.30000E+01 7.87064E-01
 2.40000E+01 7.52077E-01
 2.50000E+01 7.09820E-01
 2.60000E+01 6.79110E-01
 2.70000E+01 6.41797E-01
 2.80000E+01 6.11081E-01
 2.90000E+01 5.88050E-01
 3.00000E+01 5.66679E-01
