# n + 208Pb: Gamma-ray intensity - 208Pb: Level 28 --> Level 16 - gamma energy    0.468733
# E-initial  =   4.698323 E-final=   4.229590
# E-threshold= 4.72111E+00
# # energies =    67
#    E           xs
 1.00000E-11 0.00000E+00
 2.53000E-08 0.00000E+00
 2.00000E-07 0.00000E+00
 1.00000E-06 0.00000E+00
 1.00000E-03 0.00000E+00
 2.00000E-03 0.00000E+00
 5.00000E-03 0.00000E+00
 1.00000E-02 0.00000E+00
 2.00000E-02 0.00000E+00
 5.00000E-02 0.00000E+00
 1.00000E-01 0.00000E+00
 2.00000E-01 0.00000E+00
 3.00000E-01 0.00000E+00
 4.00000E-01 0.00000E+00
 5.00000E-01 0.00000E+00
 7.50000E-01 0.00000E+00
 1.00000E+00 0.00000E+00
 1.20000E+00 0.00000E+00
 1.40000E+00 0.00000E+00
 1.60000E+00 0.00000E+00
 1.80000E+00 0.00000E+00
 2.00000E+00 0.00000E+00
 2.20000E+00 0.00000E+00
 2.40000E+00 0.00000E+00
 2.60000E+00 0.00000E+00
 2.80000E+00 0.00000E+00
 3.00000E+00 0.00000E+00
 3.20000E+00 0.00000E+00
 3.40000E+00 0.00000E+00
 3.60000E+00 0.00000E+00
 3.80000E+00 0.00000E+00
 4.00000E+00 0.00000E+00
 4.20000E+00 0.00000E+00
 4.40000E+00 0.00000E+00
 4.60000E+00 0.00000E+00
 4.80000E+00 6.14816E-01
 5.00000E+00 1.29699E+00
 5.50000E+00 1.78670E+00
 6.00000E+00 1.58054E+00
 6.50000E+00 1.39851E+00
 7.00000E+00 1.26516E+00
 7.50000E+00 1.15204E+00
 8.00000E+00 9.86767E-01
 8.50000E+00 7.82349E-01
 9.00000E+00 6.02531E-01
 9.50000E+00 4.46881E-01
 1.00000E+01 3.29121E-01
 1.10000E+01 1.89532E-01
 1.20000E+01 1.29116E-01
 1.30000E+01 1.02521E-01
 1.40000E+01 9.08786E-02
 1.50000E+01 8.38745E-02
 1.60000E+01 7.84420E-02
 1.70000E+01 7.56476E-02
 1.80000E+01 7.20383E-02
 1.90000E+01 6.91285E-02
 2.00000E+01 6.71836E-02
 2.10000E+01 6.53995E-02
 2.20000E+01 6.26256E-02
 2.30000E+01 6.07776E-02
 2.40000E+01 5.86904E-02
 2.50000E+01 5.61387E-02
 2.60000E+01 5.44834E-02
 2.70000E+01 5.32824E-02
 2.80000E+01 5.15833E-02
 2.90000E+01 4.99634E-02
 3.00000E+01 4.87560E-02
