# n + 208Pb: Gamma-ray intensity - 208Pb: Level 16 --> Level  1 - gamma energy    1.615068
# E-initial  =   4.229590 E-final=   2.614522
# E-threshold= 4.25010E+00
# # energies =    67
#    E           xs
 1.00000E-11 0.00000E+00
 2.53000E-08 0.00000E+00
 2.00000E-07 0.00000E+00
 1.00000E-06 0.00000E+00
 1.00000E-03 0.00000E+00
 2.00000E-03 0.00000E+00
 5.00000E-03 0.00000E+00
 1.00000E-02 0.00000E+00
 2.00000E-02 0.00000E+00
 5.00000E-02 0.00000E+00
 1.00000E-01 0.00000E+00
 2.00000E-01 0.00000E+00
 3.00000E-01 0.00000E+00
 4.00000E-01 0.00000E+00
 5.00000E-01 0.00000E+00
 7.50000E-01 0.00000E+00
 1.00000E+00 0.00000E+00
 1.20000E+00 0.00000E+00
 1.40000E+00 0.00000E+00
 1.60000E+00 0.00000E+00
 1.80000E+00 0.00000E+00
 2.00000E+00 0.00000E+00
 2.20000E+00 0.00000E+00
 2.40000E+00 0.00000E+00
 2.60000E+00 0.00000E+00
 2.80000E+00 0.00000E+00
 3.00000E+00 0.00000E+00
 3.20000E+00 0.00000E+00
 3.40000E+00 0.00000E+00
 3.60000E+00 0.00000E+00
 3.80000E+00 0.00000E+00
 4.00000E+00 0.00000E+00
 4.20000E+00 0.00000E+00
 4.40000E+00 3.69710E+01
 4.60000E+00 5.78899E+01
 4.80000E+00 6.81268E+01
 5.00000E+00 6.93692E+01
 5.50000E+00 5.80186E+01
 6.00000E+00 4.77953E+01
 6.50000E+00 4.14195E+01
 7.00000E+00 3.72558E+01
 7.50000E+00 3.45226E+01
 8.00000E+00 2.95275E+01
 8.50000E+00 2.28998E+01
 9.00000E+00 1.71062E+01
 9.50000E+00 1.20901E+01
 1.00000E+01 8.42121E+00
 1.10000E+01 4.18648E+00
 1.20000E+01 2.39657E+00
 1.30000E+01 1.61494E+00
 1.40000E+01 1.30937E+00
 1.50000E+01 1.14402E+00
 1.60000E+01 1.02428E+00
 1.70000E+01 9.95632E-01
 1.80000E+01 9.03933E-01
 1.90000E+01 8.34186E-01
 2.00000E+01 7.96766E-01
 2.10000E+01 7.73951E-01
 2.20000E+01 7.06421E-01
 2.30000E+01 6.85507E-01
 2.40000E+01 6.59912E-01
 2.50000E+01 5.95592E-01
 2.60000E+01 5.71173E-01
 2.70000E+01 5.59785E-01
 2.80000E+01 5.37113E-01
 2.90000E+01 5.00853E-01
 3.00000E+01 4.84046E-01
