# n + 208Pb: Gamma-ray intensity - 207Pb: Level  7 --> Level  4 - gamma energy    0.362050
# E-initial  =   2.702000 E-final=   2.339950
# E-threshold= 1.01187E+01
# # energies = 67
#    E         xs
 1.000E-11 0.00000E+00
 2.530E-08 0.00000E+00
 2.000E-07 0.00000E+00
 1.000E-06 0.00000E+00
 1.000E-03 0.00000E+00
 2.000E-03 0.00000E+00
 5.000E-03 0.00000E+00
 1.000E-02 0.00000E+00
 2.000E-02 0.00000E+00
 5.000E-02 0.00000E+00
 1.000E-01 0.00000E+00
 2.000E-01 0.00000E+00
 3.000E-01 0.00000E+00
 4.000E-01 0.00000E+00
 5.000E-01 0.00000E+00
 7.500E-01 0.00000E+00
 1.000E+00 0.00000E+00
 1.200E+00 0.00000E+00
 1.400E+00 0.00000E+00
 1.600E+00 0.00000E+00
 1.800E+00 0.00000E+00
 2.000E+00 0.00000E+00
 2.200E+00 0.00000E+00
 2.400E+00 0.00000E+00
 2.600E+00 0.00000E+00
 2.800E+00 0.00000E+00
 3.000E+00 0.00000E+00
 3.200E+00 0.00000E+00
 3.400E+00 0.00000E+00
 3.600E+00 0.00000E+00
 3.800E+00 0.00000E+00
 4.000E+00 0.00000E+00
 4.200E+00 0.00000E+00
 4.400E+00 0.00000E+00
 4.600E+00 0.00000E+00
 4.800E+00 0.00000E+00
 5.000E+00 0.00000E+00
 5.500E+00 0.00000E+00
 6.000E+00 0.00000E+00
 6.500E+00 0.00000E+00
 7.000E+00 0.00000E+00
 7.500E+00 0.00000E+00
 8.000E+00 0.00000E+00
 8.500E+00 0.00000E+00
 9.000E+00 0.00000E+00
 9.500E+00 0.00000E+00
 1.000E+01 0.00000E+00
 1.100E+01 7.82215E+00
 1.200E+01 2.83640E+01
 1.300E+01 4.74202E+01
 1.400E+01 5.82083E+01
 1.500E+01 6.23665E+01
 1.600E+01 6.17112E+01
 1.700E+01 5.56965E+01
 1.800E+01 4.61153E+01
 1.900E+01 3.59756E+01
 2.000E+01 2.76044E+01
 2.100E+01 2.14091E+01
 2.200E+01 1.72738E+01
 2.300E+01 1.46591E+01
 2.400E+01 1.29378E+01
 2.500E+01 1.18260E+01
 2.600E+01 1.10112E+01
 2.700E+01 1.03878E+01
 2.800E+01 9.89276E+00
 2.900E+01 9.39576E+00
 3.000E+01 9.04210E+00
