# n + 208Pb: Gamma-ray intensity - 208Pb: Level 19 --> Level  2 - gamma energy    1.098849
# E-initial  =   4.296560 E-final=   3.197711
# E-threshold= 4.31740E+00
# # energies =    67
#    E           xs
 1.00000E-11 0.00000E+00
 2.53000E-08 0.00000E+00
 2.00000E-07 0.00000E+00
 1.00000E-06 0.00000E+00
 1.00000E-03 0.00000E+00
 2.00000E-03 0.00000E+00
 5.00000E-03 0.00000E+00
 1.00000E-02 0.00000E+00
 2.00000E-02 0.00000E+00
 5.00000E-02 0.00000E+00
 1.00000E-01 0.00000E+00
 2.00000E-01 0.00000E+00
 3.00000E-01 0.00000E+00
 4.00000E-01 0.00000E+00
 5.00000E-01 0.00000E+00
 7.50000E-01 0.00000E+00
 1.00000E+00 0.00000E+00
 1.20000E+00 0.00000E+00
 1.40000E+00 0.00000E+00
 1.60000E+00 0.00000E+00
 1.80000E+00 0.00000E+00
 2.00000E+00 0.00000E+00
 2.20000E+00 0.00000E+00
 2.40000E+00 0.00000E+00
 2.60000E+00 0.00000E+00
 2.80000E+00 0.00000E+00
 3.00000E+00 0.00000E+00
 3.20000E+00 0.00000E+00
 3.40000E+00 0.00000E+00
 3.60000E+00 0.00000E+00
 3.80000E+00 0.00000E+00
 4.00000E+00 0.00000E+00
 4.20000E+00 0.00000E+00
 4.40000E+00 1.08807E+00
 4.60000E+00 2.07315E+00
 4.80000E+00 2.74676E+00
 5.00000E+00 3.08777E+00
 5.50000E+00 3.11783E+00
 6.00000E+00 2.89879E+00
 6.50000E+00 2.73553E+00
 7.00000E+00 2.62887E+00
 7.50000E+00 2.59023E+00
 8.00000E+00 2.52314E+00
 8.50000E+00 2.30288E+00
 9.00000E+00 1.93766E+00
 9.50000E+00 1.53329E+00
 1.00000E+01 1.16090E+00
 1.10000E+01 6.33806E-01
 1.20000E+01 3.80968E-01
 1.30000E+01 2.71484E-01
 1.40000E+01 2.23399E-01
 1.50000E+01 1.99136E-01
 1.60000E+01 1.83412E-01
 1.70000E+01 1.73717E-01
 1.80000E+01 1.63051E-01
 1.90000E+01 1.54139E-01
 2.00000E+01 1.46765E-01
 2.10000E+01 1.39992E-01
 2.20000E+01 1.33188E-01
 2.30000E+01 1.26973E-01
 2.40000E+01 1.20788E-01
 2.50000E+01 1.14254E-01
 2.60000E+01 1.08545E-01
 2.70000E+01 1.04348E-01
 2.80000E+01 9.97372E-02
 2.90000E+01 9.61199E-02
 3.00000E+01 9.25477E-02
