# n + 208Pb: Gamma-ray intensity - 208Pb: Level  1 --> Level  0 - gamma energy    2.614522
# E-initial  =   2.614522 E-final=   0.000000
# E-threshold= 2.62720E+00
# # energies =    67
#    E           xs
 1.00000E-11 0.00000E+00
 2.53000E-08 0.00000E+00
 2.00000E-07 0.00000E+00
 1.00000E-06 0.00000E+00
 1.00000E-03 0.00000E+00
 2.00000E-03 0.00000E+00
 5.00000E-03 0.00000E+00
 1.00000E-02 0.00000E+00
 2.00000E-02 0.00000E+00
 5.00000E-02 0.00000E+00
 1.00000E-01 0.00000E+00
 2.00000E-01 0.00000E+00
 3.00000E-01 0.00000E+00
 4.00000E-01 0.00000E+00
 5.00000E-01 0.00000E+00
 7.50000E-01 0.00000E+00
 1.00000E+00 0.00000E+00
 1.20000E+00 0.00000E+00
 1.40000E+00 0.00000E+00
 1.60000E+00 0.00000E+00
 1.80000E+00 0.00000E+00
 2.00000E+00 0.00000E+00
 2.20000E+00 0.00000E+00
 2.40000E+00 0.00000E+00
 2.60000E+00 0.00000E+00
 2.80000E+00 3.15759E+02
 3.00000E+00 5.13038E+02
 3.20000E+00 6.61953E+02
 3.40000E+00 8.71847E+02
 3.60000E+00 1.06823E+03
 3.80000E+00 1.25673E+03
 4.00000E+00 1.43934E+03
 4.20000E+00 1.63296E+03
 4.40000E+00 1.80550E+03
 4.60000E+00 1.93455E+03
 4.80000E+00 2.02698E+03
 5.00000E+00 2.09337E+03
 5.50000E+00 2.16728E+03
 6.00000E+00 2.18014E+03
 6.50000E+00 2.19173E+03
 7.00000E+00 2.21533E+03
 7.50000E+00 2.25198E+03
 8.00000E+00 2.19663E+03
 8.50000E+00 2.01070E+03
 9.00000E+00 1.74241E+03
 9.50000E+00 1.43185E+03
 1.00000E+01 1.13615E+03
 1.10000E+01 6.88709E+02
 1.20000E+01 4.45990E+02
 1.30000E+01 3.30963E+02
 1.40000E+01 2.78861E+02
 1.50000E+01 2.51585E+02
 1.60000E+01 2.34174E+02
 1.70000E+01 2.23785E+02
 1.80000E+01 2.11234E+02
 1.90000E+01 2.00638E+02
 2.00000E+01 1.92614E+02
 2.10000E+01 1.84677E+02
 2.20000E+01 1.76160E+02
 2.30000E+01 1.69070E+02
 2.40000E+01 1.61875E+02
 2.50000E+01 1.52376E+02
 2.60000E+01 1.45685E+02
 2.70000E+01 1.39801E+02
 2.80000E+01 1.34103E+02
 2.90000E+01 1.29132E+02
 3.00000E+01 1.24508E+02
