# n + 208Pb: Gamma-ray intensity - 208Pb: Level 19 --> Level  0 - gamma energy    4.229500
# E-initial  =   4.229500 E-final=   0.000000
# E-threshold= 4.25001E+00
# # energies = 67
#    E         xs
 1.000E-11 0.00000E+00
 2.530E-08 0.00000E+00
 2.000E-07 0.00000E+00
 1.000E-06 0.00000E+00
 1.000E-03 0.00000E+00
 2.000E-03 0.00000E+00
 5.000E-03 0.00000E+00
 1.000E-02 0.00000E+00
 2.000E-02 0.00000E+00
 5.000E-02 0.00000E+00
 1.000E-01 0.00000E+00
 2.000E-01 0.00000E+00
 3.000E-01 0.00000E+00
 4.000E-01 0.00000E+00
 5.000E-01 0.00000E+00
 7.500E-01 0.00000E+00
 1.000E+00 0.00000E+00
 1.200E+00 0.00000E+00
 1.400E+00 0.00000E+00
 1.600E+00 0.00000E+00
 1.800E+00 0.00000E+00
 2.000E+00 0.00000E+00
 2.200E+00 0.00000E+00
 2.400E+00 0.00000E+00
 2.600E+00 0.00000E+00
 2.800E+00 0.00000E+00
 3.000E+00 0.00000E+00
 3.200E+00 0.00000E+00
 3.400E+00 0.00000E+00
 3.600E+00 0.00000E+00
 3.800E+00 0.00000E+00
 4.000E+00 0.00000E+00
 4.200E+00 0.00000E+00
 4.400E+00 8.21581E+00
 4.600E+00 1.22063E+01
 4.800E+00 1.35752E+01
 5.000E+00 1.34562E+01
 5.500E+00 1.12845E+01
 6.000E+00 9.44465E+00
 6.500E+00 8.27372E+00
 7.000E+00 7.51095E+00
 7.500E+00 7.06001E+00
 8.000E+00 6.22282E+00
 8.500E+00 5.13568E+00
 9.000E+00 4.06657E+00
 9.500E+00 3.15001E+00
 1.000E+01 2.31892E+00
 1.100E+01 1.29910E+00
 1.200E+01 8.42082E-01
 1.300E+01 6.10124E-01
 1.400E+01 5.03628E-01
 1.500E+01 4.39924E-01
 1.600E+01 4.04638E-01
 1.700E+01 3.90552E-01
 1.800E+01 3.79259E-01
 1.900E+01 3.57740E-01
 2.000E+01 3.56474E-01
 2.100E+01 3.37997E-01
 2.200E+01 3.45894E-01
 2.300E+01 3.25567E-01
 2.400E+01 3.23299E-01
 2.500E+01 3.18223E-01
 2.600E+01 2.96366E-01
 2.700E+01 2.92847E-01
 2.800E+01 2.85865E-01
 2.900E+01 2.83604E-01
 3.000E+01 2.67451E-01
