# n + 208Pb: Gamma-ray intensity - 207Pb: Level  4 --> Level  2 - gamma energy    1.442223
# E-initial  =   2.339921 E-final=   0.897698
# E-threshold= 9.75488E+00
# # energies =    67
#    E           xs
 1.00000E-11 0.00000E+00
 2.53000E-08 0.00000E+00
 2.00000E-07 0.00000E+00
 1.00000E-06 0.00000E+00
 1.00000E-03 0.00000E+00
 2.00000E-03 0.00000E+00
 5.00000E-03 0.00000E+00
 1.00000E-02 0.00000E+00
 2.00000E-02 0.00000E+00
 5.00000E-02 0.00000E+00
 1.00000E-01 0.00000E+00
 2.00000E-01 0.00000E+00
 3.00000E-01 0.00000E+00
 4.00000E-01 0.00000E+00
 5.00000E-01 0.00000E+00
 7.50000E-01 0.00000E+00
 1.00000E+00 0.00000E+00
 1.20000E+00 0.00000E+00
 1.40000E+00 0.00000E+00
 1.60000E+00 0.00000E+00
 1.80000E+00 0.00000E+00
 2.00000E+00 0.00000E+00
 2.20000E+00 0.00000E+00
 2.40000E+00 0.00000E+00
 2.60000E+00 0.00000E+00
 2.80000E+00 0.00000E+00
 3.00000E+00 0.00000E+00
 3.20000E+00 0.00000E+00
 3.40000E+00 0.00000E+00
 3.60000E+00 0.00000E+00
 3.80000E+00 0.00000E+00
 4.00000E+00 0.00000E+00
 4.20000E+00 0.00000E+00
 4.40000E+00 0.00000E+00
 4.60000E+00 0.00000E+00
 4.80000E+00 0.00000E+00
 5.00000E+00 0.00000E+00
 5.50000E+00 0.00000E+00
 6.00000E+00 0.00000E+00
 6.50000E+00 0.00000E+00
 7.00000E+00 0.00000E+00
 7.50000E+00 0.00000E+00
 8.00000E+00 0.00000E+00
 8.50000E+00 0.00000E+00
 9.00000E+00 0.00000E+00
 9.50000E+00 0.00000E+00
 1.00000E+01 3.23629E-02
 1.10000E+01 1.14453E+00
 1.20000E+01 3.20290E+00
 1.30000E+01 4.88949E+00
 1.40000E+01 5.69587E+00
 1.50000E+01 5.90292E+00
 1.60000E+01 5.65990E+00
 1.70000E+01 4.95742E+00
 1.80000E+01 4.00114E+00
 1.90000E+01 3.05949E+00
 2.00000E+01 2.32627E+00
 2.10000E+01 1.79870E+00
 2.20000E+01 1.47168E+00
 2.30000E+01 1.25859E+00
 2.40000E+01 1.12462E+00
 2.50000E+01 1.03545E+00
 2.60000E+01 9.70734E-01
 2.70000E+01 9.20808E-01
 2.80000E+01 8.85392E-01
 2.90000E+01 8.48092E-01
 3.00000E+01 8.18237E-01
