# n + 208Pb: Gamma-ray intensity - 208Pb: Level 25 --> Level  4 - gamma energy    0.772295
# E-initial  =   4.480746 E-final=   3.708451
# E-threshold= 4.50248E+00
# # energies =    67
#    E           xs
 1.00000E-11 0.00000E+00
 2.53000E-08 0.00000E+00
 2.00000E-07 0.00000E+00
 1.00000E-06 0.00000E+00
 1.00000E-03 0.00000E+00
 2.00000E-03 0.00000E+00
 5.00000E-03 0.00000E+00
 1.00000E-02 0.00000E+00
 2.00000E-02 0.00000E+00
 5.00000E-02 0.00000E+00
 1.00000E-01 0.00000E+00
 2.00000E-01 0.00000E+00
 3.00000E-01 0.00000E+00
 4.00000E-01 0.00000E+00
 5.00000E-01 0.00000E+00
 7.50000E-01 0.00000E+00
 1.00000E+00 0.00000E+00
 1.20000E+00 0.00000E+00
 1.40000E+00 0.00000E+00
 1.60000E+00 0.00000E+00
 1.80000E+00 0.00000E+00
 2.00000E+00 0.00000E+00
 2.20000E+00 0.00000E+00
 2.40000E+00 0.00000E+00
 2.60000E+00 0.00000E+00
 2.80000E+00 0.00000E+00
 3.00000E+00 0.00000E+00
 3.20000E+00 0.00000E+00
 3.40000E+00 0.00000E+00
 3.60000E+00 0.00000E+00
 3.80000E+00 0.00000E+00
 4.00000E+00 0.00000E+00
 4.20000E+00 0.00000E+00
 4.40000E+00 0.00000E+00
 4.60000E+00 6.43024E-01
 4.80000E+00 1.28207E+00
 5.00000E+00 1.74458E+00
 5.50000E+00 2.15520E+00
 6.00000E+00 2.22905E+00
 6.50000E+00 2.33747E+00
 7.00000E+00 2.46704E+00
 7.50000E+00 2.62570E+00
 8.00000E+00 2.78374E+00
 8.50000E+00 2.81458E+00
 9.00000E+00 2.59513E+00
 9.50000E+00 2.20120E+00
 1.00000E+01 1.74111E+00
 1.10000E+01 9.72191E-01
 1.20000E+01 5.41579E-01
 1.30000E+01 3.49664E-01
 1.40000E+01 2.66422E-01
 1.50000E+01 2.29802E-01
 1.60000E+01 2.09918E-01
 1.70000E+01 1.98958E-01
 1.80000E+01 1.85224E-01
 1.90000E+01 1.73281E-01
 2.00000E+01 1.65287E-01
 2.10000E+01 1.57127E-01
 2.20000E+01 1.48314E-01
 2.30000E+01 1.41837E-01
 2.40000E+01 1.33958E-01
 2.50000E+01 1.25339E-01
 2.60000E+01 1.18523E-01
 2.70000E+01 1.11430E-01
 2.80000E+01 1.05544E-01
 2.90000E+01 1.01290E-01
 3.00000E+01 9.71760E-02
