# n + 208Pb: Gamma-ray intensity - 209Pb: Level  7 --> Level  0 - gamma energy    2.424000
# E-initial  =   2.424000 E-final=   0.000000
# E-threshold= 0.00000E+00
# # energies = 67
#    E         xs
 1.000E-11 0.00000E+00
 2.530E-08 0.00000E+00
 2.000E-07 0.00000E+00
 1.000E-06 7.78309E-03
 1.000E-03 6.58441E-03
 2.000E-03 8.38614E-03
 5.000E-03 9.63502E-03
 1.000E-02 7.34237E-03
 2.000E-02 4.55180E-03
 5.000E-02 2.44204E-03
 1.000E-01 1.83219E-03
 2.000E-01 1.91665E-03
 3.000E-01 2.04595E-03
 4.000E-01 2.13016E-03
 5.000E-01 2.22969E-03
 7.500E-01 2.61762E-03
 1.000E+00 3.20575E-03
 1.200E+00 3.83353E-03
 1.400E+00 4.64259E-03
 1.600E+00 5.60507E-03
 1.800E+00 6.81357E-03
 2.000E+00 8.28520E-03
 2.200E+00 1.00502E-02
 2.400E+00 1.21723E-02
 2.600E+00 1.48494E-02
 2.800E+00 1.09648E-02
 3.000E+00 1.06195E-02
 3.200E+00 1.13064E-02
 3.400E+00 1.06871E-02
 3.600E+00 1.06252E-02
 3.800E+00 1.05829E-02
 4.000E+00 1.06577E-02
 4.200E+00 9.50093E-03
 4.400E+00 8.94288E-03
 4.600E+00 8.13983E-03
 4.800E+00 7.61634E-03
 5.000E+00 7.11523E-03
 5.500E+00 6.73348E-03
 6.000E+00 6.45027E-03
 6.500E+00 6.81489E-03
 7.000E+00 7.29211E-03
 7.500E+00 8.54659E-03
 8.000E+00 1.04603E-02
 8.500E+00 1.28349E-02
 9.000E+00 1.64105E-02
 9.500E+00 2.05785E-02
 1.000E+01 2.41099E-02
 1.100E+01 2.62455E-02
 1.200E+01 2.26942E-02
 1.300E+01 1.69171E-02
 1.400E+01 1.34942E-02
 1.500E+01 1.11846E-02
 1.600E+01 9.49444E-03
 1.700E+01 8.28022E-03
 1.800E+01 7.10501E-03
 1.900E+01 6.44743E-03
 2.000E+01 6.07547E-03
 2.100E+01 5.79201E-03
 2.200E+01 5.51368E-03
 2.300E+01 5.30424E-03
 2.400E+01 5.09052E-03
 2.500E+01 4.87298E-03
 2.600E+01 4.73308E-03
 2.700E+01 4.59360E-03
 2.800E+01 4.20129E-03
 2.900E+01 4.07835E-03
 3.000E+01 3.98748E-03
