# n + 208Pb: Gamma-ray intensity - 207Pb: Level  7 --> Level  4 - gamma energy    0.362050
# E-initial  =   2.702000 E-final=   2.339950
# E-threshold= 1.01187E+01
# # energies = 67
#    E         xs
 1.000E-11 0.00000E+00
 2.530E-08 0.00000E+00
 2.000E-07 0.00000E+00
 1.000E-06 0.00000E+00
 1.000E-03 0.00000E+00
 2.000E-03 0.00000E+00
 5.000E-03 0.00000E+00
 1.000E-02 0.00000E+00
 2.000E-02 0.00000E+00
 5.000E-02 0.00000E+00
 1.000E-01 0.00000E+00
 2.000E-01 0.00000E+00
 3.000E-01 0.00000E+00
 4.000E-01 0.00000E+00
 5.000E-01 0.00000E+00
 7.500E-01 0.00000E+00
 1.000E+00 0.00000E+00
 1.200E+00 0.00000E+00
 1.400E+00 0.00000E+00
 1.600E+00 0.00000E+00
 1.800E+00 0.00000E+00
 2.000E+00 0.00000E+00
 2.200E+00 0.00000E+00
 2.400E+00 0.00000E+00
 2.600E+00 0.00000E+00
 2.800E+00 0.00000E+00
 3.000E+00 0.00000E+00
 3.200E+00 0.00000E+00
 3.400E+00 0.00000E+00
 3.600E+00 0.00000E+00
 3.800E+00 0.00000E+00
 4.000E+00 0.00000E+00
 4.200E+00 0.00000E+00
 4.400E+00 0.00000E+00
 4.600E+00 0.00000E+00
 4.800E+00 0.00000E+00
 5.000E+00 0.00000E+00
 5.500E+00 0.00000E+00
 6.000E+00 0.00000E+00
 6.500E+00 0.00000E+00
 7.000E+00 0.00000E+00
 7.500E+00 0.00000E+00
 8.000E+00 0.00000E+00
 8.500E+00 0.00000E+00
 9.000E+00 0.00000E+00
 9.500E+00 0.00000E+00
 1.000E+01 0.00000E+00
 1.100E+01 7.83735E+00
 1.200E+01 2.81774E+01
 1.300E+01 4.68367E+01
 1.400E+01 5.71114E+01
 1.500E+01 6.07858E+01
 1.600E+01 5.99411E+01
 1.700E+01 5.38800E+01
 1.800E+01 4.42147E+01
 1.900E+01 3.41203E+01
 2.000E+01 2.59372E+01
 2.100E+01 2.00412E+01
 2.200E+01 1.61223E+01
 2.300E+01 1.36735E+01
 2.400E+01 1.20135E+01
 2.500E+01 1.09090E+01
 2.600E+01 1.00968E+01
 2.700E+01 9.47724E+00
 2.800E+01 8.98059E+00
 2.900E+01 8.52421E+00
 3.000E+01 8.13952E+00
