# n + 208Pb: Gamma-ray intensity - 209Pb: Level  1 --> Level  0 - gamma energy    0.778800
# E-initial  =   0.778800 E-final=   0.000000
# E-threshold= 0.00000E+00
# # energies = 66
#    E         xs
 1.000E-11 0.00000E+00
 2.530E-08 0.00000E+00
 1.000E-06 0.00000E+00
 1.000E-03 0.00000E+00
 2.000E-03 0.00000E+00
 5.000E-03 0.00000E+00
 1.000E-02 0.00000E+00
 2.000E-02 0.00000E+00
 5.000E-02 0.00000E+00
 1.000E-01 0.00000E+00
 2.000E-01 0.00000E+00
 3.000E-01 0.00000E+00
 4.000E-01 0.00000E+00
 5.000E-01 0.00000E+00
 7.500E-01 0.00000E+00
 1.000E+00 2.69543E-02
 1.200E+00 3.50477E-02
 1.400E+00 4.59726E-02
 1.600E+00 5.86047E-02
 1.800E+00 7.40618E-02
 2.000E+00 9.31160E-02
 2.200E+00 1.16094E-01
 2.400E+00 1.43653E-01
 2.600E+00 1.76691E-01
 2.800E+00 1.72591E-01
 3.000E+00 1.63974E-01
 3.200E+00 1.63870E-01
 3.400E+00 8.63697E-02
 3.600E+00 7.59134E-02
 3.800E+00 6.76397E-02
 4.000E+00 6.01252E-02
 4.200E+00 4.90399E-02
 4.400E+00 5.13142E-02
 4.600E+00 5.09707E-02
 4.800E+00 5.02670E-02
 5.000E+00 5.37093E-02
 5.500E+00 6.11394E-02
 6.000E+00 7.62464E-02
 6.500E+00 1.05529E-01
 7.000E+00 1.58699E-01
 7.500E+00 2.44505E-01
 8.000E+00 3.49189E-01
 8.500E+00 4.31254E-01
 9.000E+00 4.72223E-01
 9.500E+00 4.65785E-01
 1.000E+01 4.61317E-01
 1.100E+01 4.15213E-01
 1.200E+01 3.88607E-01
 1.300E+01 3.39117E-01
 1.400E+01 2.80146E-01
 1.500E+01 2.21396E-01
 1.600E+01 1.74135E-01
 1.700E+01 1.44174E-01
 1.800E+01 1.25450E-01
 1.900E+01 1.10470E-01
 2.000E+01 1.00737E-01
 2.100E+01 9.40061E-02
 2.200E+01 8.88593E-02
 2.300E+01 8.40528E-02
 2.400E+01 7.98864E-02
 2.500E+01 7.70429E-02
 2.600E+01 7.36529E-02
 2.700E+01 7.06321E-02
 2.800E+01 6.82836E-02
 2.900E+01 6.63790E-02
 3.000E+01 6.44225E-02
