# n + 208Pb: Gamma-ray intensity - 208Pb: Level 19 --> Level  0 - gamma energy    4.229500
# E-initial  =   4.229500 E-final=   0.000000
# E-threshold= 4.25001E+00
# # energies = 66
#    E         xs
 1.000E-11 0.00000E+00
 2.530E-08 0.00000E+00
 1.000E-06 0.00000E+00
 1.000E-03 0.00000E+00
 2.000E-03 0.00000E+00
 5.000E-03 0.00000E+00
 1.000E-02 0.00000E+00
 2.000E-02 0.00000E+00
 5.000E-02 0.00000E+00
 1.000E-01 0.00000E+00
 2.000E-01 0.00000E+00
 3.000E-01 0.00000E+00
 4.000E-01 0.00000E+00
 5.000E-01 0.00000E+00
 7.500E-01 0.00000E+00
 1.000E+00 0.00000E+00
 1.200E+00 0.00000E+00
 1.400E+00 0.00000E+00
 1.600E+00 0.00000E+00
 1.800E+00 0.00000E+00
 2.000E+00 0.00000E+00
 2.200E+00 0.00000E+00
 2.400E+00 0.00000E+00
 2.600E+00 0.00000E+00
 2.800E+00 0.00000E+00
 3.000E+00 0.00000E+00
 3.200E+00 0.00000E+00
 3.400E+00 0.00000E+00
 3.600E+00 0.00000E+00
 3.800E+00 0.00000E+00
 4.000E+00 0.00000E+00
 4.200E+00 0.00000E+00
 4.400E+00 8.14843E+00
 4.600E+00 1.18427E+01
 4.800E+00 1.28051E+01
 5.000E+00 1.23234E+01
 5.500E+00 9.74914E+00
 6.000E+00 7.97369E+00
 6.500E+00 6.98425E+00
 7.000E+00 6.40067E+00
 7.500E+00 6.05147E+00
 8.000E+00 5.20766E+00
 8.500E+00 4.12106E+00
 9.000E+00 3.12002E+00
 9.500E+00 2.33082E+00
 1.000E+01 1.66181E+00
 1.100E+01 9.14742E-01
 1.200E+01 6.14137E-01
 1.300E+01 4.71632E-01
 1.400E+01 4.09264E-01
 1.500E+01 3.72149E-01
 1.600E+01 3.50094E-01
 1.700E+01 3.38899E-01
 1.800E+01 3.31144E-01
 1.900E+01 3.12434E-01
 2.000E+01 3.09824E-01
 2.100E+01 2.92809E-01
 2.200E+01 2.89356E-01
 2.300E+01 2.71337E-01
 2.400E+01 2.65582E-01
 2.500E+01 2.60351E-01
 2.600E+01 2.41932E-01
 2.700E+01 2.36982E-01
 2.800E+01 2.33353E-01
 2.900E+01 2.27518E-01
 3.000E+01 2.11616E-01
