# n + 208Pb: Gamma-ray intensity - 208Pb: Level  2 --> Level  1 - gamma energy    0.583189
# E-initial  =   3.197711 E-final=   2.614522
# E-threshold= 3.21322E+00
# # energies =    67
#    E           xs
 1.00000E-11 0.00000E+00
 2.53000E-08 0.00000E+00
 2.00000E-07 0.00000E+00
 1.00000E-06 0.00000E+00
 1.00000E-03 0.00000E+00
 2.00000E-03 0.00000E+00
 5.00000E-03 0.00000E+00
 1.00000E-02 0.00000E+00
 2.00000E-02 0.00000E+00
 5.00000E-02 0.00000E+00
 1.00000E-01 0.00000E+00
 2.00000E-01 0.00000E+00
 3.00000E-01 0.00000E+00
 4.00000E-01 0.00000E+00
 5.00000E-01 0.00000E+00
 7.50000E-01 0.00000E+00
 1.00000E+00 0.00000E+00
 1.20000E+00 0.00000E+00
 1.40000E+00 0.00000E+00
 1.60000E+00 0.00000E+00
 1.80000E+00 0.00000E+00
 2.00000E+00 0.00000E+00
 2.20000E+00 0.00000E+00
 2.40000E+00 0.00000E+00
 2.60000E+00 0.00000E+00
 2.80000E+00 0.00000E+00
 3.00000E+00 0.00000E+00
 3.20000E+00 0.00000E+00
 3.40000E+00 1.35053E+02
 3.60000E+00 2.48098E+02
 3.80000E+00 3.73163E+02
 4.00000E+00 5.23423E+02
 4.20000E+00 6.78467E+02
 4.40000E+00 8.13702E+02
 4.60000E+00 9.30405E+02
 4.80000E+00 1.01205E+03
 5.00000E+00 1.06572E+03
 5.50000E+00 1.13523E+03
 6.00000E+00 1.17559E+03
 6.50000E+00 1.21533E+03
 7.00000E+00 1.26400E+03
 7.50000E+00 1.32606E+03
 8.00000E+00 1.35601E+03
 8.50000E+00 1.30815E+03
 9.00000E+00 1.17887E+03
 9.50000E+00 9.99327E+02
 1.00000E+01 8.06913E+02
 1.10000E+01 4.91276E+02
 1.20000E+01 3.07871E+02
 1.30000E+01 2.19810E+02
 1.40000E+01 1.80270E+02
 1.50000E+01 1.60644E+02
 1.60000E+01 1.49107E+02
 1.70000E+01 1.42348E+02
 1.80000E+01 1.34180E+02
 1.90000E+01 1.27157E+02
 2.00000E+01 1.22152E+02
 2.10000E+01 1.16858E+02
 2.20000E+01 1.11478E+02
 2.30000E+01 1.06808E+02
 2.40000E+01 1.01965E+02
 2.50000E+01 9.55825E+01
 2.60000E+01 9.09034E+01
 2.70000E+01 8.66562E+01
 2.80000E+01 8.25796E+01
 2.90000E+01 7.92996E+01
 3.00000E+01 7.61657E+01
