# n + 208Pb: Gamma-ray intensity - 208Pb: Level  1 --> Level  0 - gamma energy    2.614550
# E-initial  =   2.614550 E-final=   0.000000
# E-threshold= 2.62723E+00
# # energies = 67
#    E         xs
 1.000E-11 0.00000E+00
 2.530E-08 0.00000E+00
 2.000E-07 0.00000E+00
 1.000E-06 0.00000E+00
 1.000E-03 0.00000E+00
 2.000E-03 0.00000E+00
 5.000E-03 0.00000E+00
 1.000E-02 0.00000E+00
 2.000E-02 0.00000E+00
 5.000E-02 0.00000E+00
 1.000E-01 0.00000E+00
 2.000E-01 0.00000E+00
 3.000E-01 0.00000E+00
 4.000E-01 0.00000E+00
 5.000E-01 0.00000E+00
 7.500E-01 0.00000E+00
 1.000E+00 0.00000E+00
 1.200E+00 0.00000E+00
 1.400E+00 0.00000E+00
 1.600E+00 0.00000E+00
 1.800E+00 0.00000E+00
 2.000E+00 0.00000E+00
 2.200E+00 0.00000E+00
 2.400E+00 0.00000E+00
 2.600E+00 0.00000E+00
 2.800E+00 3.13789E+02
 3.000E+00 5.09856E+02
 3.200E+00 6.57844E+02
 3.400E+00 8.66451E+02
 3.600E+00 1.06162E+03
 3.800E+00 1.24896E+03
 4.000E+00 1.43051E+03
 4.200E+00 1.64353E+03
 4.400E+00 1.82440E+03
 4.600E+00 1.95086E+03
 4.800E+00 2.03580E+03
 5.000E+00 2.08929E+03
 5.500E+00 2.14013E+03
 6.000E+00 2.14509E+03
 6.500E+00 2.15332E+03
 7.000E+00 2.17593E+03
 7.500E+00 2.21394E+03
 8.000E+00 2.17741E+03
 8.500E+00 2.03568E+03
 9.000E+00 1.80678E+03
 9.500E+00 1.54062E+03
 1.000E+01 1.26566E+03
 1.100E+01 8.19865E+02
 1.200E+01 5.57665E+02
 1.300E+01 4.24102E+02
 1.400E+01 3.56167E+02
 1.500E+01 3.19145E+02
 1.600E+01 2.96010E+02
 1.700E+01 2.81650E+02
 1.800E+01 2.66113E+02
 1.900E+01 2.53369E+02
 2.000E+01 2.42650E+02
 2.100E+01 2.31676E+02
 2.200E+01 2.21417E+02
 2.300E+01 2.12031E+02
 2.400E+01 2.02127E+02
 2.500E+01 1.93422E+02
 2.600E+01 1.83734E+02
 2.700E+01 1.77545E+02
 2.800E+01 1.71632E+02
 2.900E+01 1.65513E+02
 3.000E+01 1.58950E+02
