# n + 208Pb: Gamma-ray intensity - 208Pb: Level 11 --> Level  0 - gamma energy    4.085520
# E-initial  =   4.085520 E-final=   0.000000
# E-threshold= 4.10533E+00
# # energies =    67
#    E           xs
 1.00000E-11 0.00000E+00
 2.53000E-08 0.00000E+00
 2.00000E-07 0.00000E+00
 1.00000E-06 0.00000E+00
 1.00000E-03 0.00000E+00
 2.00000E-03 0.00000E+00
 5.00000E-03 0.00000E+00
 1.00000E-02 0.00000E+00
 2.00000E-02 0.00000E+00
 5.00000E-02 0.00000E+00
 1.00000E-01 0.00000E+00
 2.00000E-01 0.00000E+00
 3.00000E-01 0.00000E+00
 4.00000E-01 0.00000E+00
 5.00000E-01 0.00000E+00
 7.50000E-01 0.00000E+00
 1.00000E+00 0.00000E+00
 1.20000E+00 0.00000E+00
 1.40000E+00 0.00000E+00
 1.60000E+00 0.00000E+00
 1.80000E+00 0.00000E+00
 2.00000E+00 0.00000E+00
 2.20000E+00 0.00000E+00
 2.40000E+00 0.00000E+00
 2.60000E+00 0.00000E+00
 2.80000E+00 0.00000E+00
 3.00000E+00 0.00000E+00
 3.20000E+00 0.00000E+00
 3.40000E+00 0.00000E+00
 3.60000E+00 0.00000E+00
 3.80000E+00 0.00000E+00
 4.00000E+00 0.00000E+00
 4.20000E+00 3.97886E+01
 4.40000E+00 8.65148E+01
 4.60000E+00 1.04422E+02
 4.80000E+00 1.09502E+02
 5.00000E+00 1.10353E+02
 5.50000E+00 1.12625E+02
 6.00000E+00 1.11590E+02
 6.50000E+00 1.01666E+02
 7.00000E+00 9.03465E+01
 7.50000E+00 8.16900E+01
 8.00000E+00 6.86506E+01
 8.50000E+00 5.31910E+01
 9.00000E+00 4.02507E+01
 9.50000E+00 2.87620E+01
 1.00000E+01 2.06795E+01
 1.10000E+01 1.08692E+01
 1.20000E+01 6.72924E+00
 1.30000E+01 4.87908E+00
 1.40000E+01 4.09063E+00
 1.50000E+01 3.62293E+00
 1.60000E+01 3.26301E+00
 1.70000E+01 3.11849E+00
 1.80000E+01 2.83254E+00
 1.90000E+01 2.62933E+00
 2.00000E+01 2.46014E+00
 2.10000E+01 2.35059E+00
 2.20000E+01 2.14754E+00
 2.30000E+01 2.05373E+00
 2.40000E+01 1.96002E+00
 2.50000E+01 1.75791E+00
 2.60000E+01 1.67322E+00
 2.70000E+01 1.62299E+00
 2.80000E+01 1.56290E+00
 2.90000E+01 1.47035E+00
 3.00000E+01 1.40476E+00
