# n + 208Pb: Gamma-ray intensity - 208Pb: Level 22 --> Level 12 - gamma energy    0.257938
# E-initial  =   4.383285 E-final=   4.125347
# E-threshold= 4.40454E+00
# # energies =    67
#    E           xs
 1.00000E-11 0.00000E+00
 2.53000E-08 0.00000E+00
 2.00000E-07 0.00000E+00
 1.00000E-06 0.00000E+00
 1.00000E-03 0.00000E+00
 2.00000E-03 0.00000E+00
 5.00000E-03 0.00000E+00
 1.00000E-02 0.00000E+00
 2.00000E-02 0.00000E+00
 5.00000E-02 0.00000E+00
 1.00000E-01 0.00000E+00
 2.00000E-01 0.00000E+00
 3.00000E-01 0.00000E+00
 4.00000E-01 0.00000E+00
 5.00000E-01 0.00000E+00
 7.50000E-01 0.00000E+00
 1.00000E+00 0.00000E+00
 1.20000E+00 0.00000E+00
 1.40000E+00 0.00000E+00
 1.60000E+00 0.00000E+00
 1.80000E+00 0.00000E+00
 2.00000E+00 0.00000E+00
 2.20000E+00 0.00000E+00
 2.40000E+00 0.00000E+00
 2.60000E+00 0.00000E+00
 2.80000E+00 0.00000E+00
 3.00000E+00 0.00000E+00
 3.20000E+00 0.00000E+00
 3.40000E+00 0.00000E+00
 3.60000E+00 0.00000E+00
 3.80000E+00 0.00000E+00
 4.00000E+00 0.00000E+00
 4.20000E+00 0.00000E+00
 4.40000E+00 0.00000E+00
 4.60000E+00 8.72445E-02
 4.80000E+00 1.35326E-01
 5.00000E+00 1.66065E-01
 5.50000E+00 1.91401E-01
 6.00000E+00 1.99505E-01
 6.50000E+00 2.11090E-01
 7.00000E+00 2.24894E-01
 7.50000E+00 2.41868E-01
 8.00000E+00 2.58250E-01
 8.50000E+00 2.62212E-01
 9.00000E+00 2.42560E-01
 9.50000E+00 2.06337E-01
 1.00000E+01 1.63661E-01
 1.10000E+01 9.18807E-02
 1.20000E+01 5.14419E-02
 1.30000E+01 3.33587E-02
 1.40000E+01 2.55169E-02
 1.50000E+01 2.20371E-02
 1.60000E+01 2.01268E-02
 1.70000E+01 1.90570E-02
 1.80000E+01 1.77181E-02
 1.90000E+01 1.65544E-02
 2.00000E+01 1.57780E-02
 2.10000E+01 1.49724E-02
 2.20000E+01 1.41187E-02
 2.30000E+01 1.34756E-02
 2.40000E+01 1.27155E-02
 2.50000E+01 1.18523E-02
 2.60000E+01 1.11920E-02
 2.70000E+01 1.05056E-02
 2.80000E+01 9.95110E-03
 2.90000E+01 9.54130E-03
 3.00000E+01 9.14472E-03
