# n + 208Pb: Gamma-ray intensity - 208Pb: Level  1 --> Level  0 - gamma energy    2.614550
# E-initial  =   2.614550 E-final=   0.000000
# E-threshold= 2.62723E+00
# # energies = 67
#    E         xs
 1.000E-11 0.00000E+00
 2.530E-08 0.00000E+00
 2.000E-07 0.00000E+00
 1.000E-06 0.00000E+00
 1.000E-03 0.00000E+00
 2.000E-03 0.00000E+00
 5.000E-03 0.00000E+00
 1.000E-02 0.00000E+00
 2.000E-02 0.00000E+00
 5.000E-02 0.00000E+00
 1.000E-01 0.00000E+00
 2.000E-01 0.00000E+00
 3.000E-01 0.00000E+00
 4.000E-01 0.00000E+00
 5.000E-01 0.00000E+00
 7.500E-01 0.00000E+00
 1.000E+00 0.00000E+00
 1.200E+00 0.00000E+00
 1.400E+00 0.00000E+00
 1.600E+00 0.00000E+00
 1.800E+00 0.00000E+00
 2.000E+00 0.00000E+00
 2.200E+00 0.00000E+00
 2.400E+00 0.00000E+00
 2.600E+00 0.00000E+00
 2.800E+00 3.13789E+02
 3.000E+00 5.09856E+02
 3.200E+00 6.57844E+02
 3.400E+00 8.66451E+02
 3.600E+00 1.06162E+03
 3.800E+00 1.24896E+03
 4.000E+00 1.43051E+03
 4.200E+00 1.64353E+03
 4.400E+00 1.82440E+03
 4.600E+00 1.95086E+03
 4.800E+00 2.03578E+03
 5.000E+00 2.08926E+03
 5.500E+00 2.14009E+03
 6.000E+00 2.14505E+03
 6.500E+00 2.15328E+03
 7.000E+00 2.17591E+03
 7.500E+00 2.21397E+03
 8.000E+00 2.17720E+03
 8.500E+00 2.03483E+03
 9.000E+00 1.80496E+03
 9.500E+00 1.53772E+03
 1.000E+01 1.26167E+03
 1.100E+01 8.14373E+02
 1.200E+01 5.51470E+02
 1.300E+01 4.17577E+02
 1.400E+01 3.49513E+02
 1.500E+01 3.12586E+02
 1.600E+01 2.89682E+02
 1.700E+01 2.75479E+02
 1.800E+01 2.60069E+02
 1.900E+01 2.47544E+02
 2.000E+01 2.37052E+02
 2.100E+01 2.26348E+02
 2.200E+01 2.16208E+02
 2.300E+01 2.06956E+02
 2.400E+01 1.97198E+02
 2.500E+01 1.88704E+02
 2.600E+01 1.79213E+02
 2.700E+01 1.73040E+02
 2.800E+01 1.67103E+02
 2.900E+01 1.60972E+02
 3.000E+01 1.54491E+02
