# n + 208Pb: Gamma-ray intensity - 207Pb: Level  2 --> Level  1 - gamma energy    0.328000
# E-initial  =   0.897698 E-final=   0.569698
# E-threshold= 8.30566E+00
# # energies =    67
#    E           xs
 1.00000E-11 0.00000E+00
 2.53000E-08 0.00000E+00
 2.00000E-07 0.00000E+00
 1.00000E-06 0.00000E+00
 1.00000E-03 0.00000E+00
 2.00000E-03 0.00000E+00
 5.00000E-03 0.00000E+00
 1.00000E-02 0.00000E+00
 2.00000E-02 0.00000E+00
 5.00000E-02 0.00000E+00
 1.00000E-01 0.00000E+00
 2.00000E-01 0.00000E+00
 3.00000E-01 0.00000E+00
 4.00000E-01 0.00000E+00
 5.00000E-01 0.00000E+00
 7.50000E-01 0.00000E+00
 1.00000E+00 0.00000E+00
 1.20000E+00 0.00000E+00
 1.40000E+00 0.00000E+00
 1.60000E+00 0.00000E+00
 1.80000E+00 0.00000E+00
 2.00000E+00 0.00000E+00
 2.20000E+00 0.00000E+00
 2.40000E+00 0.00000E+00
 2.60000E+00 0.00000E+00
 2.80000E+00 0.00000E+00
 3.00000E+00 0.00000E+00
 3.20000E+00 0.00000E+00
 3.40000E+00 0.00000E+00
 3.60000E+00 0.00000E+00
 3.80000E+00 0.00000E+00
 4.00000E+00 0.00000E+00
 4.20000E+00 0.00000E+00
 4.40000E+00 0.00000E+00
 4.60000E+00 0.00000E+00
 4.80000E+00 0.00000E+00
 5.00000E+00 0.00000E+00
 5.50000E+00 0.00000E+00
 6.00000E+00 0.00000E+00
 6.50000E+00 0.00000E+00
 7.00000E+00 0.00000E+00
 7.50000E+00 0.00000E+00
 8.00000E+00 0.00000E+00
 8.50000E+00 6.90866E-03
 9.00000E+00 1.29507E-01
 9.50000E+00 3.79107E-01
 1.00000E+01 6.52413E-01
 1.10000E+01 1.10396E+00
 1.20000E+01 1.27100E+00
 1.30000E+01 1.21704E+00
 1.40000E+01 1.09410E+00
 1.50000E+01 9.81083E-01
 1.60000E+01 8.57539E-01
 1.70000E+01 7.20137E-01
 1.80000E+01 5.91633E-01
 1.90000E+01 4.76223E-01
 2.00000E+01 3.87988E-01
 2.10000E+01 3.15318E-01
 2.20000E+01 2.68424E-01
 2.30000E+01 2.34479E-01
 2.40000E+01 2.11498E-01
 2.50000E+01 1.94872E-01
 2.60000E+01 1.83727E-01
 2.70000E+01 1.74062E-01
 2.80000E+01 1.67857E-01
 2.90000E+01 1.60949E-01
 3.00000E+01 1.55692E-01
