# n + 208Pb: Gamma-ray intensity - 207Pb: Level  2 --> Level  1 - gamma energy    0.328000
# E-initial  =   0.897698 E-final=   0.569698
# E-threshold= 8.30566E+00
# # energies =    67
#    E           xs
 1.00000E-11 0.00000E+00
 2.53000E-08 0.00000E+00
 2.00000E-07 0.00000E+00
 1.00000E-06 0.00000E+00
 1.00000E-03 0.00000E+00
 2.00000E-03 0.00000E+00
 5.00000E-03 0.00000E+00
 1.00000E-02 0.00000E+00
 2.00000E-02 0.00000E+00
 5.00000E-02 0.00000E+00
 1.00000E-01 0.00000E+00
 2.00000E-01 0.00000E+00
 3.00000E-01 0.00000E+00
 4.00000E-01 0.00000E+00
 5.00000E-01 0.00000E+00
 7.50000E-01 0.00000E+00
 1.00000E+00 0.00000E+00
 1.20000E+00 0.00000E+00
 1.40000E+00 0.00000E+00
 1.60000E+00 0.00000E+00
 1.80000E+00 0.00000E+00
 2.00000E+00 0.00000E+00
 2.20000E+00 0.00000E+00
 2.40000E+00 0.00000E+00
 2.60000E+00 0.00000E+00
 2.80000E+00 0.00000E+00
 3.00000E+00 0.00000E+00
 3.20000E+00 0.00000E+00
 3.40000E+00 0.00000E+00
 3.60000E+00 0.00000E+00
 3.80000E+00 0.00000E+00
 4.00000E+00 0.00000E+00
 4.20000E+00 0.00000E+00
 4.40000E+00 0.00000E+00
 4.60000E+00 0.00000E+00
 4.80000E+00 0.00000E+00
 5.00000E+00 0.00000E+00
 5.50000E+00 0.00000E+00
 6.00000E+00 0.00000E+00
 6.50000E+00 0.00000E+00
 7.00000E+00 0.00000E+00
 7.50000E+00 0.00000E+00
 8.00000E+00 0.00000E+00
 8.50000E+00 6.90858E-03
 9.00000E+00 1.29505E-01
 9.50000E+00 3.79104E-01
 1.00000E+01 6.52408E-01
 1.10000E+01 1.10395E+00
 1.20000E+01 1.27100E+00
 1.30000E+01 1.21704E+00
 1.40000E+01 1.09410E+00
 1.50000E+01 9.81082E-01
 1.60000E+01 8.57540E-01
 1.70000E+01 7.19921E-01
 1.80000E+01 5.89851E-01
 1.90000E+01 4.69720E-01
 2.00000E+01 3.79239E-01
 2.10000E+01 3.05732E-01
 2.20000E+01 2.59849E-01
 2.30000E+01 2.27164E-01
 2.40000E+01 2.05702E-01
 2.50000E+01 1.90513E-01
 2.60000E+01 1.79405E-01
 2.70000E+01 1.69763E-01
 2.80000E+01 1.64378E-01
 2.90000E+01 1.57009E-01
 3.00000E+01 1.52217E-01
