# n + 208Pb: Gamma-ray intensity - 208Pb: Level  7 --> Level  2 - gamma energy    0.763451
# E-initial  =   3.961162 E-final=   3.197711
# E-threshold= 3.98037E+00
# # energies =    67
#    E           xs
 1.00000E-11 0.00000E+00
 2.53000E-08 0.00000E+00
 2.00000E-07 0.00000E+00
 1.00000E-06 0.00000E+00
 1.00000E-03 0.00000E+00
 2.00000E-03 0.00000E+00
 5.00000E-03 0.00000E+00
 1.00000E-02 0.00000E+00
 2.00000E-02 0.00000E+00
 5.00000E-02 0.00000E+00
 1.00000E-01 0.00000E+00
 2.00000E-01 0.00000E+00
 3.00000E-01 0.00000E+00
 4.00000E-01 0.00000E+00
 5.00000E-01 0.00000E+00
 7.50000E-01 0.00000E+00
 1.00000E+00 0.00000E+00
 1.20000E+00 0.00000E+00
 1.40000E+00 0.00000E+00
 1.60000E+00 0.00000E+00
 1.80000E+00 0.00000E+00
 2.00000E+00 0.00000E+00
 2.20000E+00 0.00000E+00
 2.40000E+00 0.00000E+00
 2.60000E+00 0.00000E+00
 2.80000E+00 0.00000E+00
 3.00000E+00 0.00000E+00
 3.20000E+00 0.00000E+00
 3.40000E+00 0.00000E+00
 3.60000E+00 0.00000E+00
 3.80000E+00 0.00000E+00
 4.00000E+00 1.02873E+01
 4.20000E+00 3.55479E+01
 4.40000E+00 4.78640E+01
 4.60000E+00 5.48303E+01
 4.80000E+00 5.91155E+01
 5.00000E+00 6.12138E+01
 5.50000E+00 6.19797E+01
 6.00000E+00 6.08412E+01
 6.50000E+00 5.94082E+01
 7.00000E+00 5.86553E+01
 7.50000E+00 5.88531E+01
 8.00000E+00 5.76169E+01
 8.50000E+00 5.25421E+01
 9.00000E+00 4.43054E+01
 9.50000E+00 3.51719E+01
 1.00000E+01 2.67971E+01
 1.10000E+01 1.49392E+01
 1.20000E+01 9.24238E+00
 1.30000E+01 6.76590E+00
 1.40000E+01 5.66550E+00
 1.50000E+01 5.08840E+00
 1.60000E+01 4.69606E+00
 1.70000E+01 4.44096E+00
 1.80000E+01 4.15882E+00
 1.90000E+01 3.92194E+00
 2.00000E+01 3.72122E+00
 2.10000E+01 3.53957E+00
 2.20000E+01 3.35816E+00
 2.30000E+01 3.19589E+00
 2.40000E+01 3.03896E+00
 2.50000E+01 2.86085E+00
 2.60000E+01 2.71858E+00
 2.70000E+01 2.61012E+00
 2.80000E+01 2.50189E+00
 2.90000E+01 2.41028E+00
 3.00000E+01 2.32044E+00
