# n + 208Pb: Gamma-ray intensity - 207Pb: Level  8 --> Level  3 - gamma energy    1.094536
# E-initial  =   2.727892 E-final=   1.633356
# E-threshold= 1.01447E+01
# # energies =    67
#    E           xs
 1.00000E-11 0.00000E+00
 2.53000E-08 0.00000E+00
 2.00000E-07 0.00000E+00
 1.00000E-06 0.00000E+00
 1.00000E-03 0.00000E+00
 2.00000E-03 0.00000E+00
 5.00000E-03 0.00000E+00
 1.00000E-02 0.00000E+00
 2.00000E-02 0.00000E+00
 5.00000E-02 0.00000E+00
 1.00000E-01 0.00000E+00
 2.00000E-01 0.00000E+00
 3.00000E-01 0.00000E+00
 4.00000E-01 0.00000E+00
 5.00000E-01 0.00000E+00
 7.50000E-01 0.00000E+00
 1.00000E+00 0.00000E+00
 1.20000E+00 0.00000E+00
 1.40000E+00 0.00000E+00
 1.60000E+00 0.00000E+00
 1.80000E+00 0.00000E+00
 2.00000E+00 0.00000E+00
 2.20000E+00 0.00000E+00
 2.40000E+00 0.00000E+00
 2.60000E+00 0.00000E+00
 2.80000E+00 0.00000E+00
 3.00000E+00 0.00000E+00
 3.20000E+00 0.00000E+00
 3.40000E+00 0.00000E+00
 3.60000E+00 0.00000E+00
 3.80000E+00 0.00000E+00
 4.00000E+00 0.00000E+00
 4.20000E+00 0.00000E+00
 4.40000E+00 0.00000E+00
 4.60000E+00 0.00000E+00
 4.80000E+00 0.00000E+00
 5.00000E+00 0.00000E+00
 5.50000E+00 0.00000E+00
 6.00000E+00 0.00000E+00
 6.50000E+00 0.00000E+00
 7.00000E+00 0.00000E+00
 7.50000E+00 0.00000E+00
 8.00000E+00 0.00000E+00
 8.50000E+00 0.00000E+00
 9.00000E+00 0.00000E+00
 9.50000E+00 0.00000E+00
 1.00000E+01 0.00000E+00
 1.10000E+01 1.36757E+01
 1.20000E+01 4.69042E+01
 1.30000E+01 7.45656E+01
 1.40000E+01 8.79967E+01
 1.50000E+01 9.20900E+01
 1.60000E+01 8.93957E+01
 1.70000E+01 7.90659E+01
 1.80000E+01 6.40187E+01
 1.90000E+01 4.86782E+01
 2.00000E+01 3.66604E+01
 2.10000E+01 2.80706E+01
 2.20000E+01 2.28587E+01
 2.30000E+01 1.95201E+01
 2.40000E+01 1.74686E+01
 2.50000E+01 1.61442E+01
 2.60000E+01 1.51133E+01
 2.70000E+01 1.43269E+01
 2.80000E+01 1.38187E+01
 2.90000E+01 1.31963E+01
 3.00000E+01 1.27593E+01
