# n + 208Pb: Gamma-ray intensity - 208Pb: Level 29 --> Level  4 - gamma energy    1.000276
# E-initial  =   4.708727 E-final=   3.708451
# E-threshold= 4.73156E+00
# # energies =    67
#    E           xs
 1.00000E-11 0.00000E+00
 2.53000E-08 0.00000E+00
 2.00000E-07 0.00000E+00
 1.00000E-06 0.00000E+00
 1.00000E-03 0.00000E+00
 2.00000E-03 0.00000E+00
 5.00000E-03 0.00000E+00
 1.00000E-02 0.00000E+00
 2.00000E-02 0.00000E+00
 5.00000E-02 0.00000E+00
 1.00000E-01 0.00000E+00
 2.00000E-01 0.00000E+00
 3.00000E-01 0.00000E+00
 4.00000E-01 0.00000E+00
 5.00000E-01 0.00000E+00
 7.50000E-01 0.00000E+00
 1.00000E+00 0.00000E+00
 1.20000E+00 0.00000E+00
 1.40000E+00 0.00000E+00
 1.60000E+00 0.00000E+00
 1.80000E+00 0.00000E+00
 2.00000E+00 0.00000E+00
 2.20000E+00 0.00000E+00
 2.40000E+00 0.00000E+00
 2.60000E+00 0.00000E+00
 2.80000E+00 0.00000E+00
 3.00000E+00 0.00000E+00
 3.20000E+00 0.00000E+00
 3.40000E+00 0.00000E+00
 3.60000E+00 0.00000E+00
 3.80000E+00 0.00000E+00
 4.00000E+00 0.00000E+00
 4.20000E+00 0.00000E+00
 4.40000E+00 0.00000E+00
 4.60000E+00 0.00000E+00
 4.80000E+00 3.71973E+00
 5.00000E+00 8.07696E+00
 5.50000E+00 1.22478E+01
 6.00000E+00 1.15611E+01
 6.50000E+00 1.06723E+01
 7.00000E+00 1.00437E+01
 7.50000E+00 9.55366E+00
 8.00000E+00 9.02186E+00
 8.50000E+00 8.08415E+00
 9.00000E+00 6.73423E+00
 9.50000E+00 5.31827E+00
 1.00000E+01 4.04032E+00
 1.10000E+01 2.25766E+00
 1.20000E+01 1.41138E+00
 1.30000E+01 1.04557E+00
 1.40000E+01 8.82998E-01
 1.50000E+01 7.99466E-01
 1.60000E+01 7.44585E-01
 1.70000E+01 7.10820E-01
 1.80000E+01 6.75617E-01
 1.90000E+01 6.46129E-01
 2.00000E+01 6.22079E-01
 2.10000E+01 5.99241E-01
 2.20000E+01 5.75466E-01
 2.30000E+01 5.53615E-01
 2.40000E+01 5.30878E-01
 2.50000E+01 5.08795E-01
 2.60000E+01 4.88418E-01
 2.70000E+01 4.73310E-01
 2.80000E+01 4.53873E-01
 2.90000E+01 4.39686E-01
 3.00000E+01 4.25757E-01
