# n + 208Pb: Gamma-ray intensity - 208Pb: Level 28 --> Level 11 - gamma energy    0.612803
# E-initial  =   4.698323 E-final=   4.085520
# E-threshold= 4.72111E+00
# # energies =    67
#    E           xs
 1.00000E-11 0.00000E+00
 2.53000E-08 0.00000E+00
 2.00000E-07 0.00000E+00
 1.00000E-06 0.00000E+00
 1.00000E-03 0.00000E+00
 2.00000E-03 0.00000E+00
 5.00000E-03 0.00000E+00
 1.00000E-02 0.00000E+00
 2.00000E-02 0.00000E+00
 5.00000E-02 0.00000E+00
 1.00000E-01 0.00000E+00
 2.00000E-01 0.00000E+00
 3.00000E-01 0.00000E+00
 4.00000E-01 0.00000E+00
 5.00000E-01 0.00000E+00
 7.50000E-01 0.00000E+00
 1.00000E+00 0.00000E+00
 1.20000E+00 0.00000E+00
 1.40000E+00 0.00000E+00
 1.60000E+00 0.00000E+00
 1.80000E+00 0.00000E+00
 2.00000E+00 0.00000E+00
 2.20000E+00 0.00000E+00
 2.40000E+00 0.00000E+00
 2.60000E+00 0.00000E+00
 2.80000E+00 0.00000E+00
 3.00000E+00 0.00000E+00
 3.20000E+00 0.00000E+00
 3.40000E+00 0.00000E+00
 3.60000E+00 0.00000E+00
 3.80000E+00 0.00000E+00
 4.00000E+00 0.00000E+00
 4.20000E+00 0.00000E+00
 4.40000E+00 0.00000E+00
 4.60000E+00 0.00000E+00
 4.80000E+00 1.04511E-01
 5.00000E+00 2.20472E-01
 5.50000E+00 3.03716E-01
 6.00000E+00 2.68671E-01
 6.50000E+00 2.37728E-01
 7.00000E+00 2.15062E-01
 7.50000E+00 1.95832E-01
 8.00000E+00 1.67738E-01
 8.50000E+00 1.32989E-01
 9.00000E+00 1.02423E-01
 9.50000E+00 7.59642E-02
 1.00000E+01 5.59464E-02
 1.10000E+01 3.22181E-02
 1.20000E+01 2.19481E-02
 1.30000E+01 1.74273E-02
 1.40000E+01 1.54482E-02
 1.50000E+01 1.42576E-02
 1.60000E+01 1.33341E-02
 1.70000E+01 1.28591E-02
 1.80000E+01 1.22456E-02
 1.90000E+01 1.17510E-02
 2.00000E+01 1.14204E-02
 2.10000E+01 1.11171E-02
 2.20000E+01 1.06456E-02
 2.30000E+01 1.03314E-02
 2.40000E+01 9.97663E-03
 2.50000E+01 9.54287E-03
 2.60000E+01 9.26148E-03
 2.70000E+01 9.05734E-03
 2.80000E+01 8.76852E-03
 2.90000E+01 8.49315E-03
 3.00000E+01 8.28789E-03
