# n + 208Pb: Gamma-ray intensity - 208Pb: Level 28 --> Level 16 - gamma energy    0.468733
# E-initial  =   4.698323 E-final=   4.229590
# E-threshold= 4.72111E+00
# # energies =    67
#    E           xs
 1.00000E-11 0.00000E+00
 2.53000E-08 0.00000E+00
 2.00000E-07 0.00000E+00
 1.00000E-06 0.00000E+00
 1.00000E-03 0.00000E+00
 2.00000E-03 0.00000E+00
 5.00000E-03 0.00000E+00
 1.00000E-02 0.00000E+00
 2.00000E-02 0.00000E+00
 5.00000E-02 0.00000E+00
 1.00000E-01 0.00000E+00
 2.00000E-01 0.00000E+00
 3.00000E-01 0.00000E+00
 4.00000E-01 0.00000E+00
 5.00000E-01 0.00000E+00
 7.50000E-01 0.00000E+00
 1.00000E+00 0.00000E+00
 1.20000E+00 0.00000E+00
 1.40000E+00 0.00000E+00
 1.60000E+00 0.00000E+00
 1.80000E+00 0.00000E+00
 2.00000E+00 0.00000E+00
 2.20000E+00 0.00000E+00
 2.40000E+00 0.00000E+00
 2.60000E+00 0.00000E+00
 2.80000E+00 0.00000E+00
 3.00000E+00 0.00000E+00
 3.20000E+00 0.00000E+00
 3.40000E+00 0.00000E+00
 3.60000E+00 0.00000E+00
 3.80000E+00 0.00000E+00
 4.00000E+00 0.00000E+00
 4.20000E+00 0.00000E+00
 4.40000E+00 0.00000E+00
 4.60000E+00 0.00000E+00
 4.80000E+00 6.14816E-01
 5.00000E+00 1.29699E+00
 5.50000E+00 1.78665E+00
 6.00000E+00 1.58047E+00
 6.50000E+00 1.39844E+00
 7.00000E+00 1.26510E+00
 7.50000E+00 1.15199E+00
 8.00000E+00 9.86725E-01
 8.50000E+00 7.82307E-01
 9.00000E+00 6.02492E-01
 9.50000E+00 4.46847E-01
 1.00000E+01 3.29093E-01
 1.10000E+01 1.89516E-01
 1.20000E+01 1.29108E-01
 1.30000E+01 1.02517E-01
 1.40000E+01 9.08761E-02
 1.50000E+01 8.38728E-02
 1.60000E+01 7.84406E-02
 1.70000E+01 7.56464E-02
 1.80000E+01 7.20368E-02
 1.90000E+01 6.91040E-02
 2.00000E+01 6.71819E-02
 2.10000E+01 6.53977E-02
 2.20000E+01 6.26237E-02
 2.30000E+01 6.07756E-02
 2.40000E+01 5.86883E-02
 2.50000E+01 5.61367E-02
 2.60000E+01 5.44812E-02
 2.70000E+01 5.32802E-02
 2.80000E+01 5.15814E-02
 2.90000E+01 4.99613E-02
 3.00000E+01 4.87539E-02
