# n + 208Pb: Gamma-ray intensity - 208Pb: Level 22 --> Level 12 - gamma energy    0.257938
# E-initial  =   4.383285 E-final=   4.125347
# E-threshold= 4.40454E+00
# # energies =    67
#    E           xs
 1.00000E-11 0.00000E+00
 2.53000E-08 0.00000E+00
 2.00000E-07 0.00000E+00
 1.00000E-06 0.00000E+00
 1.00000E-03 0.00000E+00
 2.00000E-03 0.00000E+00
 5.00000E-03 0.00000E+00
 1.00000E-02 0.00000E+00
 2.00000E-02 0.00000E+00
 5.00000E-02 0.00000E+00
 1.00000E-01 0.00000E+00
 2.00000E-01 0.00000E+00
 3.00000E-01 0.00000E+00
 4.00000E-01 0.00000E+00
 5.00000E-01 0.00000E+00
 7.50000E-01 0.00000E+00
 1.00000E+00 0.00000E+00
 1.20000E+00 0.00000E+00
 1.40000E+00 0.00000E+00
 1.60000E+00 0.00000E+00
 1.80000E+00 0.00000E+00
 2.00000E+00 0.00000E+00
 2.20000E+00 0.00000E+00
 2.40000E+00 0.00000E+00
 2.60000E+00 0.00000E+00
 2.80000E+00 0.00000E+00
 3.00000E+00 0.00000E+00
 3.20000E+00 0.00000E+00
 3.40000E+00 0.00000E+00
 3.60000E+00 0.00000E+00
 3.80000E+00 0.00000E+00
 4.00000E+00 0.00000E+00
 4.20000E+00 0.00000E+00
 4.40000E+00 0.00000E+00
 4.60000E+00 8.72444E-02
 4.80000E+00 1.35326E-01
 5.00000E+00 1.66066E-01
 5.50000E+00 1.91404E-01
 6.00000E+00 1.99509E-01
 6.50000E+00 2.11096E-01
 7.00000E+00 2.24900E-01
 7.50000E+00 2.41875E-01
 8.00000E+00 2.58257E-01
 8.50000E+00 2.62219E-01
 9.00000E+00 2.42569E-01
 9.50000E+00 2.06348E-01
 1.00000E+01 1.63673E-01
 1.10000E+01 9.18897E-02
 1.20000E+01 5.14473E-02
 1.30000E+01 3.33618E-02
 1.40000E+01 2.55187E-02
 1.50000E+01 2.20383E-02
 1.60000E+01 2.01277E-02
 1.70000E+01 1.90577E-02
 1.80000E+01 1.77187E-02
 1.90000E+01 1.65584E-02
 2.00000E+01 1.57785E-02
 2.10000E+01 1.49729E-02
 2.20000E+01 1.41192E-02
 2.30000E+01 1.34761E-02
 2.40000E+01 1.27160E-02
 2.50000E+01 1.18527E-02
 2.60000E+01 1.11924E-02
 2.70000E+01 1.05060E-02
 2.80000E+01 9.95145E-03
 2.90000E+01 9.54165E-03
 3.00000E+01 9.14506E-03
