# n + 208Pb: Gamma-ray intensity - 207Pb: Level  1 --> Level  0 - gamma energy    0.569703
# E-initial  =   0.569703 E-final=   0.000000
# E-threshold= 7.97607E+00
# # energies = 67
#    E         xs
 1.000E-11 0.00000E+00
 2.530E-08 0.00000E+00
 2.000E-07 0.00000E+00
 1.000E-06 0.00000E+00
 1.000E-03 0.00000E+00
 2.000E-03 0.00000E+00
 5.000E-03 0.00000E+00
 1.000E-02 0.00000E+00
 2.000E-02 0.00000E+00
 5.000E-02 0.00000E+00
 1.000E-01 0.00000E+00
 2.000E-01 0.00000E+00
 3.000E-01 0.00000E+00
 4.000E-01 0.00000E+00
 5.000E-01 0.00000E+00
 7.500E-01 0.00000E+00
 1.000E+00 0.00000E+00
 1.200E+00 0.00000E+00
 1.400E+00 0.00000E+00
 1.600E+00 0.00000E+00
 1.800E+00 0.00000E+00
 2.000E+00 0.00000E+00
 2.200E+00 0.00000E+00
 2.400E+00 0.00000E+00
 2.600E+00 0.00000E+00
 2.800E+00 0.00000E+00
 3.000E+00 0.00000E+00
 3.200E+00 0.00000E+00
 3.400E+00 0.00000E+00
 3.600E+00 0.00000E+00
 3.800E+00 0.00000E+00
 4.000E+00 0.00000E+00
 4.200E+00 0.00000E+00
 4.400E+00 0.00000E+00
 4.600E+00 0.00000E+00
 4.800E+00 0.00000E+00
 5.000E+00 0.00000E+00
 5.500E+00 0.00000E+00
 6.000E+00 0.00000E+00
 6.500E+00 0.00000E+00
 7.000E+00 0.00000E+00
 7.500E+00 0.00000E+00
 8.000E+00 3.06170E-01
 8.500E+00 7.93954E+01
 9.000E+00 2.67053E+02
 9.500E+00 4.47802E+02
 1.000E+01 5.69952E+02
 1.100E+01 7.05492E+02
 1.200E+01 7.22534E+02
 1.300E+01 7.08186E+02
 1.400E+01 6.85452E+02
 1.500E+01 6.56580E+02
 1.600E+01 6.05608E+02
 1.700E+01 5.17510E+02
 1.800E+01 4.09725E+02
 1.900E+01 3.14023E+02
 2.000E+01 2.42206E+02
 2.100E+01 1.90285E+02
 2.200E+01 1.58810E+02
 2.300E+01 1.36319E+02
 2.400E+01 1.22539E+02
 2.500E+01 1.11231E+02
 2.600E+01 1.02722E+02
 2.700E+01 9.65210E+01
 2.800E+01 9.11924E+01
 2.900E+01 8.41868E+01
 3.000E+01 8.14688E+01
