# n + 208Pb: Gamma-ray intensity - 208Pb: Level  7 --> Level  3 - gamma energy    0.486084
# E-initial  =   3.961162 E-final=   3.475078
# E-threshold= 3.98037E+00
# # energies =    67
#    E           xs
 1.00000E-11 0.00000E+00
 2.53000E-08 0.00000E+00
 2.00000E-07 0.00000E+00
 1.00000E-06 0.00000E+00
 1.00000E-03 0.00000E+00
 2.00000E-03 0.00000E+00
 5.00000E-03 0.00000E+00
 1.00000E-02 0.00000E+00
 2.00000E-02 0.00000E+00
 5.00000E-02 0.00000E+00
 1.00000E-01 0.00000E+00
 2.00000E-01 0.00000E+00
 3.00000E-01 0.00000E+00
 4.00000E-01 0.00000E+00
 5.00000E-01 0.00000E+00
 7.50000E-01 0.00000E+00
 1.00000E+00 0.00000E+00
 1.20000E+00 0.00000E+00
 1.40000E+00 0.00000E+00
 1.60000E+00 0.00000E+00
 1.80000E+00 0.00000E+00
 2.00000E+00 0.00000E+00
 2.20000E+00 0.00000E+00
 2.40000E+00 0.00000E+00
 2.60000E+00 0.00000E+00
 2.80000E+00 0.00000E+00
 3.00000E+00 0.00000E+00
 3.20000E+00 0.00000E+00
 3.40000E+00 0.00000E+00
 3.60000E+00 0.00000E+00
 3.80000E+00 0.00000E+00
 4.00000E+00 2.57186E-01
 4.20000E+00 8.88711E-01
 4.40000E+00 1.19662E+00
 4.60000E+00 1.37078E+00
 4.80000E+00 1.47791E+00
 5.00000E+00 1.53037E+00
 5.50000E+00 1.54952E+00
 6.00000E+00 1.52105E+00
 6.50000E+00 1.48523E+00
 7.00000E+00 1.46641E+00
 7.50000E+00 1.47135E+00
 8.00000E+00 1.44045E+00
 8.50000E+00 1.31357E+00
 9.00000E+00 1.10765E+00
 9.50000E+00 8.79311E-01
 1.00000E+01 6.69937E-01
 1.10000E+01 3.73485E-01
 1.20000E+01 2.31063E-01
 1.30000E+01 1.69150E-01
 1.40000E+01 1.41640E-01
 1.50000E+01 1.27212E-01
 1.60000E+01 1.17403E-01
 1.70000E+01 1.11026E-01
 1.80000E+01 1.03972E-01
 1.90000E+01 9.80500E-02
 2.00000E+01 9.30319E-02
 2.10000E+01 8.84906E-02
 2.20000E+01 8.39553E-02
 2.30000E+01 7.98985E-02
 2.40000E+01 7.59752E-02
 2.50000E+01 7.15223E-02
 2.60000E+01 6.79655E-02
 2.70000E+01 6.52541E-02
 2.80000E+01 6.25482E-02
 2.90000E+01 6.02579E-02
 3.00000E+01 5.80118E-02
