# n + 208Pb: Gamma-ray intensity - 207Pb: Level  2 --> Level  1 - gamma energy    0.328000
# E-initial  =   0.897698 E-final=   0.569698
# E-threshold= 8.30566E+00
# # energies =    67
#    E           xs
 1.00000E-11 0.00000E+00
 2.53000E-08 0.00000E+00
 2.00000E-07 0.00000E+00
 1.00000E-06 0.00000E+00
 1.00000E-03 0.00000E+00
 2.00000E-03 0.00000E+00
 5.00000E-03 0.00000E+00
 1.00000E-02 0.00000E+00
 2.00000E-02 0.00000E+00
 5.00000E-02 0.00000E+00
 1.00000E-01 0.00000E+00
 2.00000E-01 0.00000E+00
 3.00000E-01 0.00000E+00
 4.00000E-01 0.00000E+00
 5.00000E-01 0.00000E+00
 7.50000E-01 0.00000E+00
 1.00000E+00 0.00000E+00
 1.20000E+00 0.00000E+00
 1.40000E+00 0.00000E+00
 1.60000E+00 0.00000E+00
 1.80000E+00 0.00000E+00
 2.00000E+00 0.00000E+00
 2.20000E+00 0.00000E+00
 2.40000E+00 0.00000E+00
 2.60000E+00 0.00000E+00
 2.80000E+00 0.00000E+00
 3.00000E+00 0.00000E+00
 3.20000E+00 0.00000E+00
 3.40000E+00 0.00000E+00
 3.60000E+00 0.00000E+00
 3.80000E+00 0.00000E+00
 4.00000E+00 0.00000E+00
 4.20000E+00 0.00000E+00
 4.40000E+00 0.00000E+00
 4.60000E+00 0.00000E+00
 4.80000E+00 0.00000E+00
 5.00000E+00 0.00000E+00
 5.50000E+00 0.00000E+00
 6.00000E+00 0.00000E+00
 6.50000E+00 0.00000E+00
 7.00000E+00 0.00000E+00
 7.50000E+00 0.00000E+00
 8.00000E+00 0.00000E+00
 8.50000E+00 6.90763E-03
 9.00000E+00 1.29490E-01
 9.50000E+00 3.79065E-01
 1.00000E+01 6.52351E-01
 1.10000E+01 1.10388E+00
 1.20000E+01 1.27095E+00
 1.30000E+01 1.21701E+00
 1.40000E+01 1.09409E+00
 1.50000E+01 9.81086E-01
 1.60000E+01 8.57563E-01
 1.70000E+01 7.20183E-01
 1.80000E+01 5.91695E-01
 1.90000E+01 4.76293E-01
 2.00000E+01 3.88054E-01
 2.10000E+01 3.15373E-01
 2.20000E+01 2.68468E-01
 2.30000E+01 2.34512E-01
 2.40000E+01 2.11523E-01
 2.50000E+01 1.94892E-01
 2.60000E+01 1.83742E-01
 2.70000E+01 1.74074E-01
 2.80000E+01 1.67867E-01
 2.90000E+01 1.60958E-01
 3.00000E+01 1.55701E-01
