# n + 208Pb: Gamma-ray intensity - 208Pb: Level 22 --> Level 15 - gamma energy    0.177008
# E-initial  =   4.383285 E-final=   4.206277
# E-threshold= 4.40454E+00
# # energies =    67
#    E           xs
 1.00000E-11 0.00000E+00
 2.53000E-08 0.00000E+00
 2.00000E-07 0.00000E+00
 1.00000E-06 0.00000E+00
 1.00000E-03 0.00000E+00
 2.00000E-03 0.00000E+00
 5.00000E-03 0.00000E+00
 1.00000E-02 0.00000E+00
 2.00000E-02 0.00000E+00
 5.00000E-02 0.00000E+00
 1.00000E-01 0.00000E+00
 2.00000E-01 0.00000E+00
 3.00000E-01 0.00000E+00
 4.00000E-01 0.00000E+00
 5.00000E-01 0.00000E+00
 7.50000E-01 0.00000E+00
 1.00000E+00 0.00000E+00
 1.20000E+00 0.00000E+00
 1.40000E+00 0.00000E+00
 1.60000E+00 0.00000E+00
 1.80000E+00 0.00000E+00
 2.00000E+00 0.00000E+00
 2.20000E+00 0.00000E+00
 2.40000E+00 0.00000E+00
 2.60000E+00 0.00000E+00
 2.80000E+00 0.00000E+00
 3.00000E+00 0.00000E+00
 3.20000E+00 0.00000E+00
 3.40000E+00 0.00000E+00
 3.60000E+00 0.00000E+00
 3.80000E+00 0.00000E+00
 4.00000E+00 0.00000E+00
 4.20000E+00 0.00000E+00
 4.40000E+00 0.00000E+00
 4.60000E+00 1.10663E-01
 4.80000E+00 1.71650E-01
 5.00000E+00 2.10641E-01
 5.50000E+00 2.42778E-01
 6.00000E+00 2.53056E-01
 6.50000E+00 2.67752E-01
 7.00000E+00 2.85260E-01
 7.50000E+00 3.06791E-01
 8.00000E+00 3.27570E-01
 8.50000E+00 3.32595E-01
 9.00000E+00 3.07668E-01
 9.50000E+00 2.61722E-01
 1.00000E+01 2.07592E-01
 1.10000E+01 1.16544E-01
 1.20000E+01 6.52500E-02
 1.30000E+01 4.23130E-02
 1.40000E+01 3.23662E-02
 1.50000E+01 2.79524E-02
 1.60000E+01 2.55294E-02
 1.70000E+01 2.41723E-02
 1.80000E+01 2.24740E-02
 1.90000E+01 2.09980E-02
 2.00000E+01 2.00131E-02
 2.10000E+01 1.89913E-02
 2.20000E+01 1.79085E-02
 2.30000E+01 1.70928E-02
 2.40000E+01 1.61287E-02
 2.50000E+01 1.50337E-02
 2.60000E+01 1.41962E-02
 2.70000E+01 1.33255E-02
 2.80000E+01 1.26222E-02
 2.90000E+01 1.21024E-02
 3.00000E+01 1.15994E-02
