# n + 208Pb: Gamma-ray intensity - 208Pb: Level  1 --> Level  0 - gamma energy    2.614550
# E-initial  =   2.614550 E-final=   0.000000
# E-threshold= 2.62723E+00
# # energies = 67
#    E         xs
 1.000E-11 0.00000E+00
 2.530E-08 0.00000E+00
 2.000E-07 0.00000E+00
 1.000E-06 0.00000E+00
 1.000E-03 0.00000E+00
 2.000E-03 0.00000E+00
 5.000E-03 0.00000E+00
 1.000E-02 0.00000E+00
 2.000E-02 0.00000E+00
 5.000E-02 0.00000E+00
 1.000E-01 0.00000E+00
 2.000E-01 0.00000E+00
 3.000E-01 0.00000E+00
 4.000E-01 0.00000E+00
 5.000E-01 0.00000E+00
 7.500E-01 0.00000E+00
 1.000E+00 0.00000E+00
 1.200E+00 0.00000E+00
 1.400E+00 0.00000E+00
 1.600E+00 0.00000E+00
 1.800E+00 0.00000E+00
 2.000E+00 0.00000E+00
 2.200E+00 0.00000E+00
 2.400E+00 0.00000E+00
 2.600E+00 0.00000E+00
 2.800E+00 3.16465E+02
 3.000E+00 5.14203E+02
 3.200E+00 6.63451E+02
 3.400E+00 8.73833E+02
 3.600E+00 1.07066E+03
 3.800E+00 1.25960E+03
 4.000E+00 1.44269E+03
 4.200E+00 1.65752E+03
 4.400E+00 1.84031E+03
 4.600E+00 1.96740E+03
 4.800E+00 2.05066E+03
 5.000E+00 2.10131E+03
 5.500E+00 2.14680E+03
 6.000E+00 2.15143E+03
 6.500E+00 2.16115E+03
 7.000E+00 2.18533E+03
 7.500E+00 2.22511E+03
 8.000E+00 2.20003E+03
 8.500E+00 2.07367E+03
 9.000E+00 1.85886E+03
 9.500E+00 1.59536E+03
 1.000E+01 1.31900E+03
 1.100E+01 8.58715E+02
 1.200E+01 5.78273E+02
 1.300E+01 4.34766E+02
 1.400E+01 3.60927E+02
 1.500E+01 3.21124E+02
 1.600E+01 2.96014E+02
 1.700E+01 2.81268E+02
 1.800E+01 2.65441E+02
 1.900E+01 2.52582E+02
 2.000E+01 2.41408E+02
 2.100E+01 2.30533E+02
 2.200E+01 2.20380E+02
 2.300E+01 2.11354E+02
 2.400E+01 2.01130E+02
 2.500E+01 1.92711E+02
 2.600E+01 1.83185E+02
 2.700E+01 1.76357E+02
 2.800E+01 1.71065E+02
 2.900E+01 1.64059E+02
 3.000E+01 1.57843E+02
