# n + 208Pb: Gamma-ray intensity - 208Pb: Level 30 --> Level  1 - gamma energy    2.097295
# E-initial  =   4.711817 E-final=   2.614522
# E-threshold= 4.73467E+00
# # energies =    67
#    E           xs
 1.00000E-11 0.00000E+00
 2.53000E-08 0.00000E+00
 2.00000E-07 0.00000E+00
 1.00000E-06 0.00000E+00
 1.00000E-03 0.00000E+00
 2.00000E-03 0.00000E+00
 5.00000E-03 0.00000E+00
 1.00000E-02 0.00000E+00
 2.00000E-02 0.00000E+00
 5.00000E-02 0.00000E+00
 1.00000E-01 0.00000E+00
 2.00000E-01 0.00000E+00
 3.00000E-01 0.00000E+00
 4.00000E-01 0.00000E+00
 5.00000E-01 0.00000E+00
 7.50000E-01 0.00000E+00
 1.00000E+00 0.00000E+00
 1.20000E+00 0.00000E+00
 1.40000E+00 0.00000E+00
 1.60000E+00 0.00000E+00
 1.80000E+00 0.00000E+00
 2.00000E+00 0.00000E+00
 2.20000E+00 0.00000E+00
 2.40000E+00 0.00000E+00
 2.60000E+00 0.00000E+00
 2.80000E+00 0.00000E+00
 3.00000E+00 0.00000E+00
 3.20000E+00 0.00000E+00
 3.40000E+00 0.00000E+00
 3.60000E+00 0.00000E+00
 3.80000E+00 0.00000E+00
 4.00000E+00 0.00000E+00
 4.20000E+00 0.00000E+00
 4.40000E+00 0.00000E+00
 4.60000E+00 0.00000E+00
 4.80000E+00 9.35471E+00
 5.00000E+00 2.08565E+01
 5.50000E+00 3.06340E+01
 6.00000E+00 2.76642E+01
 6.50000E+00 2.44957E+01
 7.00000E+00 2.20828E+01
 7.50000E+00 2.00890E+01
 8.00000E+00 1.77024E+01
 8.50000E+00 1.45911E+01
 9.00000E+00 1.13842E+01
 9.50000E+00 8.40376E+00
 1.00000E+01 5.98704E+00
 1.10000E+01 2.92043E+00
 1.20000E+01 1.59010E+00
 1.30000E+01 1.03394E+00
 1.40000E+01 8.01157E-01
 1.50000E+01 6.92704E-01
 1.60000E+01 6.28534E-01
 1.70000E+01 6.00403E-01
 1.80000E+01 5.63703E-01
 1.90000E+01 5.33017E-01
 2.00000E+01 5.10626E-01
 2.10000E+01 4.91324E-01
 2.20000E+01 4.69036E-01
 2.30000E+01 4.53296E-01
 2.40000E+01 4.32867E-01
 2.50000E+01 4.11333E-01
 2.60000E+01 3.93042E-01
 2.70000E+01 3.81417E-01
 2.80000E+01 3.59613E-01
 2.90000E+01 3.47474E-01
 3.00000E+01 3.36421E-01
