# n + 208Pb: Gamma-ray intensity - 208Pb: Level 16 --> Level  0 - gamma energy    4.159000
# E-initial  =   4.159000 E-final=   0.000000
# E-threshold= 4.17917E+00
# # energies = 67
#    E         xs
 1.000E-11 0.00000E+00
 2.530E-08 0.00000E+00
 2.000E-07 0.00000E+00
 1.000E-06 0.00000E+00
 1.000E-03 0.00000E+00
 2.000E-03 0.00000E+00
 5.000E-03 0.00000E+00
 1.000E-02 0.00000E+00
 2.000E-02 0.00000E+00
 5.000E-02 0.00000E+00
 1.000E-01 0.00000E+00
 2.000E-01 0.00000E+00
 3.000E-01 0.00000E+00
 4.000E-01 0.00000E+00
 5.000E-01 0.00000E+00
 7.500E-01 0.00000E+00
 1.000E+00 0.00000E+00
 1.200E+00 0.00000E+00
 1.400E+00 0.00000E+00
 1.600E+00 0.00000E+00
 1.800E+00 0.00000E+00
 2.000E+00 0.00000E+00
 2.200E+00 0.00000E+00
 2.400E+00 0.00000E+00
 2.600E+00 0.00000E+00
 2.800E+00 0.00000E+00
 3.000E+00 0.00000E+00
 3.200E+00 0.00000E+00
 3.400E+00 0.00000E+00
 3.600E+00 0.00000E+00
 3.800E+00 0.00000E+00
 4.000E+00 0.00000E+00
 4.200E+00 5.56461E+00
 4.400E+00 2.93230E+01
 4.600E+00 3.91741E+01
 4.800E+00 4.20021E+01
 5.000E+00 4.24408E+01
 5.500E+00 4.24613E+01
 6.000E+00 4.13361E+01
 6.500E+00 3.73576E+01
 7.000E+00 3.28515E+01
 7.500E+00 2.94977E+01
 8.000E+00 2.51071E+01
 8.500E+00 2.03713E+01
 9.000E+00 1.59587E+01
 9.500E+00 1.23833E+01
 1.000E+01 9.25620E+00
 1.100E+01 5.32109E+00
 1.200E+01 3.54977E+00
 1.300E+01 2.64741E+00
 1.400E+01 2.23472E+00
 1.500E+01 1.95205E+00
 1.600E+01 1.78736E+00
 1.700E+01 1.71254E+00
 1.800E+01 1.61746E+00
 1.900E+01 1.50784E+00
 2.000E+01 1.47239E+00
 2.100E+01 1.37486E+00
 2.200E+01 1.36362E+00
 2.300E+01 1.26384E+00
 2.400E+01 1.23110E+00
 2.500E+01 1.20225E+00
 2.600E+01 1.10428E+00
 2.700E+01 1.08238E+00
 2.800E+01 1.04605E+00
 2.900E+01 1.03573E+00
 3.000E+01 9.61057E-01
