# n + 208Pb: Gamma-ray intensity - 208Pb: Level  7 --> Level  4 - gamma energy    0.252711
# E-initial  =   3.961162 E-final=   3.708451
# E-threshold= 3.98037E+00
# # energies =    67
#    E           xs
 1.00000E-11 0.00000E+00
 2.53000E-08 0.00000E+00
 2.00000E-07 0.00000E+00
 1.00000E-06 0.00000E+00
 1.00000E-03 0.00000E+00
 2.00000E-03 0.00000E+00
 5.00000E-03 0.00000E+00
 1.00000E-02 0.00000E+00
 2.00000E-02 0.00000E+00
 5.00000E-02 0.00000E+00
 1.00000E-01 0.00000E+00
 2.00000E-01 0.00000E+00
 3.00000E-01 0.00000E+00
 4.00000E-01 0.00000E+00
 5.00000E-01 0.00000E+00
 7.50000E-01 0.00000E+00
 1.00000E+00 0.00000E+00
 1.20000E+00 0.00000E+00
 1.40000E+00 0.00000E+00
 1.60000E+00 0.00000E+00
 1.80000E+00 0.00000E+00
 2.00000E+00 0.00000E+00
 2.20000E+00 0.00000E+00
 2.40000E+00 0.00000E+00
 2.60000E+00 0.00000E+00
 2.80000E+00 0.00000E+00
 3.00000E+00 0.00000E+00
 3.20000E+00 0.00000E+00
 3.40000E+00 0.00000E+00
 3.60000E+00 0.00000E+00
 3.80000E+00 0.00000E+00
 4.00000E+00 3.94027E+00
 4.20000E+00 1.36157E+01
 4.40000E+00 1.83330E+01
 4.60000E+00 2.10013E+01
 4.80000E+00 2.26427E+01
 5.00000E+00 2.34464E+01
 5.50000E+00 2.37399E+01
 6.00000E+00 2.33039E+01
 6.50000E+00 2.27550E+01
 7.00000E+00 2.24666E+01
 7.50000E+00 2.25424E+01
 8.00000E+00 2.20689E+01
 8.50000E+00 2.01252E+01
 9.00000E+00 1.69705E+01
 9.50000E+00 1.34722E+01
 1.00000E+01 1.02645E+01
 1.10000E+01 5.72246E+00
 1.20000E+01 3.54026E+00
 1.30000E+01 2.59160E+00
 1.40000E+01 2.17006E+00
 1.50000E+01 1.94899E+00
 1.60000E+01 1.79871E+00
 1.70000E+01 1.70099E+00
 1.80000E+01 1.59293E+00
 1.90000E+01 1.50238E+00
 2.00000E+01 1.42531E+00
 2.10000E+01 1.35574E+00
 2.20000E+01 1.28626E+00
 2.30000E+01 1.22410E+00
 2.40000E+01 1.16400E+00
 2.50000E+01 1.09577E+00
 2.60000E+01 1.04128E+00
 2.70000E+01 9.99743E-01
 2.80000E+01 9.58287E-01
 2.90000E+01 9.23198E-01
 3.00000E+01 8.88787E-01
