# n + 208Pb: Gamma-ray intensity - 209Pb: Level  3 --> Level  0 - gamma energy    1.567090
# E-initial  =   1.567090 E-final=   0.000000
# E-threshold= 0.00000E+00
# # energies =    67
#    E           xs
 1.00000E-11 0.00000E+00
 2.53000E-08 0.00000E+00
 2.00000E-07 0.00000E+00
 1.00000E-06 2.47255E+02
 1.00000E-03 1.31832E+00
 2.00000E-03 7.82689E-01
 5.00000E-03 4.24215E-01
 1.00000E-02 2.53151E-01
 2.00000E-02 1.41368E-01
 5.00000E-02 7.56025E-02
 1.00000E-01 5.08887E-02
 2.00000E-01 3.63159E-02
 3.00000E-01 3.14228E-02
 4.00000E-01 2.94900E-02
 5.00000E-01 2.90212E-02
 7.50000E-01 3.11633E-02
 1.00000E+00 3.62732E-02
 1.20000E+00 4.21329E-02
 1.40000E+00 4.93089E-02
 1.60000E+00 5.83941E-02
 1.80000E+00 6.93381E-02
 2.00000E+00 8.23538E-02
 2.20000E+00 9.88645E-02
 2.40000E+00 1.17820E-01
 2.60000E+00 1.39220E-01
 2.80000E+00 1.21519E-01
 3.00000E+00 1.21714E-01
 3.20000E+00 1.29992E-01
 3.40000E+00 1.36572E-01
 3.60000E+00 1.44904E-01
 3.80000E+00 1.49379E-01
 4.00000E+00 1.57401E-01
 4.20000E+00 1.47631E-01
 4.40000E+00 1.20295E-01
 4.60000E+00 1.04811E-01
 4.80000E+00 1.05149E-01
 5.00000E+00 9.65314E-02
 5.50000E+00 7.94433E-02
 6.00000E+00 7.08288E-02
 6.50000E+00 7.23761E-02
 7.00000E+00 8.39726E-02
 7.50000E+00 1.08346E-01
 8.00000E+00 1.55870E-01
 8.50000E+00 2.37913E-01
 9.00000E+00 3.63916E-01
 9.50000E+00 5.16924E-01
 1.00000E+01 6.25654E-01
 1.10000E+01 5.79941E-01
 1.20000E+01 4.03266E-01
 1.30000E+01 2.74588E-01
 1.40000E+01 2.06146E-01
 1.50000E+01 1.65379E-01
 1.60000E+01 1.40585E-01
 1.70000E+01 1.30231E-01
 1.80000E+01 1.19619E-01
 1.90000E+01 1.12699E-01
 2.00000E+01 1.05180E-01
 2.10000E+01 9.56147E-02
 2.20000E+01 8.69324E-02
 2.30000E+01 8.23283E-02
 2.40000E+01 7.47975E-02
 2.50000E+01 7.13350E-02
 2.60000E+01 6.68127E-02
 2.70000E+01 6.43739E-02
 2.80000E+01 6.16407E-02
 2.90000E+01 5.88880E-02
 3.00000E+01 5.72840E-02
