# n + 208Pb: Gamma-ray intensity - 208Pb: Level 25 --> Level  2 - gamma energy    1.283035
# E-initial  =   4.480746 E-final=   3.197711
# E-threshold= 4.50248E+00
# # energies =    67
#    E           xs
 1.00000E-11 0.00000E+00
 2.53000E-08 0.00000E+00
 2.00000E-07 0.00000E+00
 1.00000E-06 0.00000E+00
 1.00000E-03 0.00000E+00
 2.00000E-03 0.00000E+00
 5.00000E-03 0.00000E+00
 1.00000E-02 0.00000E+00
 2.00000E-02 0.00000E+00
 5.00000E-02 0.00000E+00
 1.00000E-01 0.00000E+00
 2.00000E-01 0.00000E+00
 3.00000E-01 0.00000E+00
 4.00000E-01 0.00000E+00
 5.00000E-01 0.00000E+00
 7.50000E-01 0.00000E+00
 1.00000E+00 0.00000E+00
 1.20000E+00 0.00000E+00
 1.40000E+00 0.00000E+00
 1.60000E+00 0.00000E+00
 1.80000E+00 0.00000E+00
 2.00000E+00 0.00000E+00
 2.20000E+00 0.00000E+00
 2.40000E+00 0.00000E+00
 2.60000E+00 0.00000E+00
 2.80000E+00 0.00000E+00
 3.00000E+00 0.00000E+00
 3.20000E+00 0.00000E+00
 3.40000E+00 0.00000E+00
 3.60000E+00 0.00000E+00
 3.80000E+00 0.00000E+00
 4.00000E+00 0.00000E+00
 4.20000E+00 0.00000E+00
 4.40000E+00 0.00000E+00
 4.60000E+00 7.39071E+00
 4.80000E+00 1.47357E+01
 5.00000E+00 2.00517E+01
 5.50000E+00 2.47712E+01
 6.00000E+00 2.56200E+01
 6.50000E+00 2.68661E+01
 7.00000E+00 2.83553E+01
 7.50000E+00 3.01790E+01
 8.00000E+00 3.19954E+01
 8.50000E+00 3.23499E+01
 9.00000E+00 2.98275E+01
 9.50000E+00 2.52998E+01
 1.00000E+01 2.00118E+01
 1.10000E+01 1.11740E+01
 1.20000E+01 6.22473E+00
 1.30000E+01 4.01892E+00
 1.40000E+01 3.06217E+00
 1.50000E+01 2.64127E+00
 1.60000E+01 2.41273E+00
 1.70000E+01 2.28676E+00
 1.80000E+01 2.12891E+00
 1.90000E+01 1.99163E+00
 2.00000E+01 1.89976E+00
 2.10000E+01 1.80596E+00
 2.20000E+01 1.70467E+00
 2.30000E+01 1.63023E+00
 2.40000E+01 1.53967E+00
 2.50000E+01 1.44061E+00
 2.60000E+01 1.36226E+00
 2.70000E+01 1.28074E+00
 2.80000E+01 1.21308E+00
 2.90000E+01 1.16420E+00
 3.00000E+01 1.11691E+00
