# n + 208Pb: Gamma-ray intensity - 207Pb: Level  4 --> Level  1 - gamma energy    1.770247
# E-initial  =   2.339950 E-final=   0.569703
# E-threshold= 3.35130E+00
# # energies = 66
#    E         xs
 1.000E-11 0.00000E+00
 2.530E-08 0.00000E+00
 1.000E-06 0.00000E+00
 1.000E-03 0.00000E+00
 2.000E-03 0.00000E+00
 5.000E-03 0.00000E+00
 1.000E-02 0.00000E+00
 2.000E-02 0.00000E+00
 5.000E-02 0.00000E+00
 1.000E-01 0.00000E+00
 2.000E-01 0.00000E+00
 3.000E-01 0.00000E+00
 4.000E-01 0.00000E+00
 5.000E-01 0.00000E+00
 7.500E-01 0.00000E+00
 1.000E+00 0.00000E+00
 1.200E+00 0.00000E+00
 1.400E+00 0.00000E+00
 1.600E+00 0.00000E+00
 1.800E+00 0.00000E+00
 2.000E+00 0.00000E+00
 2.200E+00 0.00000E+00
 2.400E+00 0.00000E+00
 2.600E+00 0.00000E+00
 2.800E+00 0.00000E+00
 3.000E+00 0.00000E+00
 3.200E+00 0.00000E+00
 3.400E+00 0.00000E+00
 3.600E+00 0.00000E+00
 3.800E+00 0.00000E+00
 4.000E+00 0.00000E+00
 4.200E+00 0.00000E+00
 4.400E+00 0.00000E+00
 4.600E+00 0.00000E+00
 4.800E+00 0.00000E+00
 5.000E+00 0.00000E+00
 5.500E+00 0.00000E+00
 6.000E+00 0.00000E+00
 6.500E+00 0.00000E+00
 7.000E+00 0.00000E+00
 7.500E+00 0.00000E+00
 8.000E+00 0.00000E+00
 8.500E+00 0.00000E+00
 9.000E+00 0.00000E+00
 9.500E+00 0.00000E+00
 1.000E+01 1.73802E+00
 1.100E+01 5.52063E+01
 1.200E+01 1.38583E+02
 1.300E+01 2.01866E+02
 1.400E+01 2.28981E+02
 1.500E+01 2.33120E+02
 1.600E+01 2.17743E+02
 1.700E+01 1.81939E+02
 1.800E+01 1.37375E+02
 1.900E+01 9.88656E+01
 2.000E+01 7.21833E+01
 2.100E+01 5.53411E+01
 2.200E+01 4.53416E+01
 2.300E+01 3.93304E+01
 2.400E+01 3.53290E+01
 2.500E+01 3.26138E+01
 2.600E+01 3.03355E+01
 2.700E+01 2.85458E+01
 2.800E+01 2.69181E+01
 2.900E+01 2.59646E+01
 3.000E+01 2.48129E+01
