# n + 208Pb: Gamma-ray intensity - 208Pb: Level 19 --> Level 12 - gamma energy    0.171213
# E-initial  =   4.296560 E-final=   4.125347
# E-threshold= 4.31740E+00
# # energies =    67
#    E           xs
 1.00000E-11 0.00000E+00
 2.53000E-08 0.00000E+00
 2.00000E-07 0.00000E+00
 1.00000E-06 0.00000E+00
 1.00000E-03 0.00000E+00
 2.00000E-03 0.00000E+00
 5.00000E-03 0.00000E+00
 1.00000E-02 0.00000E+00
 2.00000E-02 0.00000E+00
 5.00000E-02 0.00000E+00
 1.00000E-01 0.00000E+00
 2.00000E-01 0.00000E+00
 3.00000E-01 0.00000E+00
 4.00000E-01 0.00000E+00
 5.00000E-01 0.00000E+00
 7.50000E-01 0.00000E+00
 1.00000E+00 0.00000E+00
 1.20000E+00 0.00000E+00
 1.40000E+00 0.00000E+00
 1.60000E+00 0.00000E+00
 1.80000E+00 0.00000E+00
 2.00000E+00 0.00000E+00
 2.20000E+00 0.00000E+00
 2.40000E+00 0.00000E+00
 2.60000E+00 0.00000E+00
 2.80000E+00 0.00000E+00
 3.00000E+00 0.00000E+00
 3.20000E+00 0.00000E+00
 3.40000E+00 0.00000E+00
 3.60000E+00 0.00000E+00
 3.80000E+00 0.00000E+00
 4.00000E+00 0.00000E+00
 4.20000E+00 0.00000E+00
 4.40000E+00 5.33954E-01
 4.60000E+00 1.01736E+00
 4.80000E+00 1.34792E+00
 5.00000E+00 1.51527E+00
 5.50000E+00 1.53002E+00
 6.00000E+00 1.42253E+00
 6.50000E+00 1.34242E+00
 7.00000E+00 1.29007E+00
 7.50000E+00 1.27111E+00
 8.00000E+00 1.23819E+00
 8.50000E+00 1.13010E+00
 9.00000E+00 9.50875E-01
 9.50000E+00 7.52435E-01
 1.00000E+01 5.69690E-01
 1.10000E+01 3.11029E-01
 1.20000E+01 1.86953E-01
 1.30000E+01 1.33226E-01
 1.40000E+01 1.09629E-01
 1.50000E+01 9.77226E-02
 1.60000E+01 9.00063E-02
 1.70000E+01 8.52486E-02
 1.80000E+01 8.00146E-02
 1.90000E+01 7.56412E-02
 2.00000E+01 7.20222E-02
 2.10000E+01 6.86986E-02
 2.20000E+01 6.53598E-02
 2.30000E+01 6.23096E-02
 2.40000E+01 5.92746E-02
 2.50000E+01 5.60684E-02
 2.60000E+01 5.32667E-02
 2.70000E+01 5.12068E-02
 2.80000E+01 4.89443E-02
 2.90000E+01 4.71692E-02
 3.00000E+01 4.54162E-02
