# n + 208Pb: Gamma-ray intensity - 208Pb: Level 13 --> Level  0 - gamma energy    4.144000
# E-initial  =   4.144000 E-final=   0.000000
# E-threshold= 4.16410E+00
# # energies =    67
#    E           xs
 1.00000E-11 0.00000E+00
 2.53000E-08 0.00000E+00
 2.00000E-07 0.00000E+00
 1.00000E-06 0.00000E+00
 1.00000E-03 0.00000E+00
 2.00000E-03 0.00000E+00
 5.00000E-03 0.00000E+00
 1.00000E-02 0.00000E+00
 2.00000E-02 0.00000E+00
 5.00000E-02 0.00000E+00
 1.00000E-01 0.00000E+00
 2.00000E-01 0.00000E+00
 3.00000E-01 0.00000E+00
 4.00000E-01 0.00000E+00
 5.00000E-01 0.00000E+00
 7.50000E-01 0.00000E+00
 1.00000E+00 0.00000E+00
 1.20000E+00 0.00000E+00
 1.40000E+00 0.00000E+00
 1.60000E+00 0.00000E+00
 1.80000E+00 0.00000E+00
 2.00000E+00 0.00000E+00
 2.20000E+00 0.00000E+00
 2.40000E+00 0.00000E+00
 2.60000E+00 0.00000E+00
 2.80000E+00 0.00000E+00
 3.00000E+00 0.00000E+00
 3.20000E+00 0.00000E+00
 3.40000E+00 0.00000E+00
 3.60000E+00 0.00000E+00
 3.80000E+00 0.00000E+00
 4.00000E+00 0.00000E+00
 4.20000E+00 1.50455E+01
 4.40000E+00 5.42449E+01
 4.60000E+00 7.16056E+01
 4.80000E+00 7.74719E+01
 5.00000E+00 7.85136E+01
 5.50000E+00 7.61698E+01
 6.00000E+00 7.10539E+01
 6.50000E+00 6.17539E+01
 7.00000E+00 5.23065E+01
 7.50000E+00 4.51205E+01
 8.00000E+00 3.63295E+01
 8.50000E+00 2.70471E+01
 9.00000E+00 1.97816E+01
 9.50000E+00 1.38851E+01
 1.00000E+01 9.78045E+00
 1.10000E+01 5.06954E+00
 1.20000E+01 3.02670E+00
 1.30000E+01 2.10185E+00
 1.40000E+01 1.72097E+00
 1.50000E+01 1.50023E+00
 1.60000E+01 1.33654E+00
 1.70000E+01 1.28721E+00
 1.80000E+01 1.17151E+00
 1.90000E+01 1.08152E+00
 2.00000E+01 1.02486E+00
 2.10000E+01 9.92323E-01
 2.20000E+01 8.97906E-01
 2.30000E+01 8.67340E-01
 2.40000E+01 8.33472E-01
 2.50000E+01 7.34608E-01
 2.60000E+01 7.03617E-01
 2.70000E+01 6.90735E-01
 2.80000E+01 6.63420E-01
 2.90000E+01 6.15809E-01
 3.00000E+01 5.91777E-01
