# n + 208Pb: Gamma-ray intensity - 208Pb: Level  2 --> Level  1 - gamma energy    0.583189
# E-initial  =   3.197711 E-final=   2.614522
# E-threshold= 3.21322E+00
# # energies =    67
#    E           xs
 1.00000E-11 0.00000E+00
 2.53000E-08 0.00000E+00
 2.00000E-07 0.00000E+00
 1.00000E-06 0.00000E+00
 1.00000E-03 0.00000E+00
 2.00000E-03 0.00000E+00
 5.00000E-03 0.00000E+00
 1.00000E-02 0.00000E+00
 2.00000E-02 0.00000E+00
 5.00000E-02 0.00000E+00
 1.00000E-01 0.00000E+00
 2.00000E-01 0.00000E+00
 3.00000E-01 0.00000E+00
 4.00000E-01 0.00000E+00
 5.00000E-01 0.00000E+00
 7.50000E-01 0.00000E+00
 1.00000E+00 0.00000E+00
 1.20000E+00 0.00000E+00
 1.40000E+00 0.00000E+00
 1.60000E+00 0.00000E+00
 1.80000E+00 0.00000E+00
 2.00000E+00 0.00000E+00
 2.20000E+00 0.00000E+00
 2.40000E+00 0.00000E+00
 2.60000E+00 0.00000E+00
 2.80000E+00 0.00000E+00
 3.00000E+00 0.00000E+00
 3.20000E+00 0.00000E+00
 3.40000E+00 1.35053E+02
 3.60000E+00 2.48098E+02
 3.80000E+00 3.73163E+02
 4.00000E+00 5.23423E+02
 4.20000E+00 6.78467E+02
 4.40000E+00 8.13702E+02
 4.60000E+00 9.30405E+02
 4.80000E+00 1.01205E+03
 5.00000E+00 1.06572E+03
 5.50000E+00 1.13524E+03
 6.00000E+00 1.17560E+03
 6.50000E+00 1.21535E+03
 7.00000E+00 1.26402E+03
 7.50000E+00 1.32608E+03
 8.00000E+00 1.35603E+03
 8.50000E+00 1.30818E+03
 9.00000E+00 1.17891E+03
 9.50000E+00 9.99380E+02
 1.00000E+01 8.06968E+02
 1.10000E+01 4.91321E+02
 1.20000E+01 3.07900E+02
 1.30000E+01 2.19827E+02
 1.40000E+01 1.80281E+02
 1.50000E+01 1.60652E+02
 1.60000E+01 1.49113E+02
 1.70000E+01 1.42352E+02
 1.80000E+01 1.34185E+02
 1.90000E+01 1.27171E+02
 2.00000E+01 1.22156E+02
 2.10000E+01 1.16861E+02
 2.20000E+01 1.11481E+02
 2.30000E+01 1.06812E+02
 2.40000E+01 1.01968E+02
 2.50000E+01 9.55854E+01
 2.60000E+01 9.09061E+01
 2.70000E+01 8.66589E+01
 2.80000E+01 8.25820E+01
 2.90000E+01 7.93021E+01
 3.00000E+01 7.61680E+01
