# n + 208Pb: Gamma-ray intensity - 207Pb: Level  1 --> Level  0 - gamma energy    0.569703
# E-initial  =   0.569703 E-final=   0.000000
# E-threshold= 7.97607E+00
# # energies = 67
#    E         xs
 1.000E-11 0.00000E+00
 2.530E-08 0.00000E+00
 2.000E-07 0.00000E+00
 1.000E-06 0.00000E+00
 1.000E-03 0.00000E+00
 2.000E-03 0.00000E+00
 5.000E-03 0.00000E+00
 1.000E-02 0.00000E+00
 2.000E-02 0.00000E+00
 5.000E-02 0.00000E+00
 1.000E-01 0.00000E+00
 2.000E-01 0.00000E+00
 3.000E-01 0.00000E+00
 4.000E-01 0.00000E+00
 5.000E-01 0.00000E+00
 7.500E-01 0.00000E+00
 1.000E+00 0.00000E+00
 1.200E+00 0.00000E+00
 1.400E+00 0.00000E+00
 1.600E+00 0.00000E+00
 1.800E+00 0.00000E+00
 2.000E+00 0.00000E+00
 2.200E+00 0.00000E+00
 2.400E+00 0.00000E+00
 2.600E+00 0.00000E+00
 2.800E+00 0.00000E+00
 3.000E+00 0.00000E+00
 3.200E+00 0.00000E+00
 3.400E+00 0.00000E+00
 3.600E+00 0.00000E+00
 3.800E+00 0.00000E+00
 4.000E+00 0.00000E+00
 4.200E+00 0.00000E+00
 4.400E+00 0.00000E+00
 4.600E+00 0.00000E+00
 4.800E+00 0.00000E+00
 5.000E+00 0.00000E+00
 5.500E+00 0.00000E+00
 6.000E+00 0.00000E+00
 6.500E+00 0.00000E+00
 7.000E+00 0.00000E+00
 7.500E+00 0.00000E+00
 8.000E+00 3.04182E-01
 8.500E+00 8.22116E+01
 9.000E+00 2.76697E+02
 9.500E+00 4.59772E+02
 1.000E+01 5.80187E+02
 1.100E+01 7.08464E+02
 1.200E+01 7.20727E+02
 1.300E+01 7.11163E+02
 1.400E+01 6.98548E+02
 1.500E+01 6.78778E+02
 1.600E+01 6.29968E+02
 1.700E+01 5.40215E+02
 1.800E+01 4.30009E+02
 1.900E+01 3.32134E+02
 2.000E+01 2.58009E+02
 2.100E+01 2.02960E+02
 2.200E+01 1.69801E+02
 2.300E+01 1.46259E+02
 2.400E+01 1.31598E+02
 2.500E+01 1.20612E+02
 2.600E+01 1.11808E+02
 2.700E+01 1.05473E+02
 2.800E+01 1.00493E+02
 2.900E+01 9.23351E+01
 3.000E+01 9.02713E+01
