# n + 208Pb: Gamma-ray intensity - 208Pb: Level  1 --> Level  0 - gamma energy    2.614520
# E-initial  =   2.614520 E-final=   0.000000
# E-threshold= 2.62720E+00
# # energies = 67
#    E         xs
 1.000E-11 0.00000E+00
 2.530E-08 0.00000E+00
 2.000E-07 0.00000E+00
 1.000E-06 0.00000E+00
 1.000E-03 0.00000E+00
 2.000E-03 0.00000E+00
 5.000E-03 0.00000E+00
 1.000E-02 0.00000E+00
 2.000E-02 0.00000E+00
 5.000E-02 0.00000E+00
 1.000E-01 0.00000E+00
 2.000E-01 0.00000E+00
 3.000E-01 0.00000E+00
 4.000E-01 0.00000E+00
 5.000E-01 0.00000E+00
 7.500E-01 0.00000E+00
 1.000E+00 0.00000E+00
 1.200E+00 0.00000E+00
 1.400E+00 0.00000E+00
 1.600E+00 0.00000E+00
 1.800E+00 0.00000E+00
 2.000E+00 0.00000E+00
 2.200E+00 0.00000E+00
 2.400E+00 0.00000E+00
 2.600E+00 0.00000E+00
 2.800E+00 3.15712E+02
 3.000E+00 5.12951E+02
 3.200E+00 6.61822E+02
 3.400E+00 8.71687E+02
 3.600E+00 1.06803E+03
 3.800E+00 1.25650E+03
 4.000E+00 1.43907E+03
 4.200E+00 1.63268E+03
 4.400E+00 1.80520E+03
 4.600E+00 1.93424E+03
 4.800E+00 2.02655E+03
 5.000E+00 2.09257E+03
 5.500E+00 2.16498E+03
 6.000E+00 2.17711E+03
 6.500E+00 2.18889E+03
 7.000E+00 2.21316E+03
 7.500E+00 2.25189E+03
 8.000E+00 2.21213E+03
 8.500E+00 2.05853E+03
 9.000E+00 1.82503E+03
 9.500E+00 1.54230E+03
 1.000E+01 1.26201E+03
 1.100E+01 8.10090E+02
 1.200E+01 5.44100E+02
 1.300E+01 4.08057E+02
 1.400E+01 3.42257E+02
 1.500E+01 3.06684E+02
 1.600E+01 2.83967E+02
 1.700E+01 2.69875E+02
 1.800E+01 2.55106E+02
 1.900E+01 2.42673E+02
 2.000E+01 2.33110E+02
 2.100E+01 2.23476E+02
 2.200E+01 2.13540E+02
 2.300E+01 2.05227E+02
 2.400E+01 1.96702E+02
 2.500E+01 1.85578E+02
 2.600E+01 1.76888E+02
 2.700E+01 1.70255E+02
 2.800E+01 1.64357E+02
 2.900E+01 1.58644E+02
 3.000E+01 1.53474E+02
