# n + 208Pb: Gamma-ray intensity - 208Pb: Level 28 --> Level  8 - gamma energy    0.702885
# E-initial  =   4.698323 E-final=   3.995438
# E-threshold= 4.72111E+00
# # energies =    67
#    E           xs
 1.00000E-11 0.00000E+00
 2.53000E-08 0.00000E+00
 2.00000E-07 0.00000E+00
 1.00000E-06 0.00000E+00
 1.00000E-03 0.00000E+00
 2.00000E-03 0.00000E+00
 5.00000E-03 0.00000E+00
 1.00000E-02 0.00000E+00
 2.00000E-02 0.00000E+00
 5.00000E-02 0.00000E+00
 1.00000E-01 0.00000E+00
 2.00000E-01 0.00000E+00
 3.00000E-01 0.00000E+00
 4.00000E-01 0.00000E+00
 5.00000E-01 0.00000E+00
 7.50000E-01 0.00000E+00
 1.00000E+00 0.00000E+00
 1.20000E+00 0.00000E+00
 1.40000E+00 0.00000E+00
 1.60000E+00 0.00000E+00
 1.80000E+00 0.00000E+00
 2.00000E+00 0.00000E+00
 2.20000E+00 0.00000E+00
 2.40000E+00 0.00000E+00
 2.60000E+00 0.00000E+00
 2.80000E+00 0.00000E+00
 3.00000E+00 0.00000E+00
 3.20000E+00 0.00000E+00
 3.40000E+00 0.00000E+00
 3.60000E+00 0.00000E+00
 3.80000E+00 0.00000E+00
 4.00000E+00 0.00000E+00
 4.20000E+00 0.00000E+00
 4.40000E+00 0.00000E+00
 4.60000E+00 0.00000E+00
 4.80000E+00 2.52118E-01
 5.00000E+00 5.31857E-01
 5.50000E+00 7.32671E-01
 6.00000E+00 6.48130E-01
 6.50000E+00 5.73486E-01
 7.00000E+00 5.18805E-01
 7.50000E+00 4.72417E-01
 8.00000E+00 4.04643E-01
 8.50000E+00 3.20818E-01
 9.00000E+00 2.47080E-01
 9.50000E+00 1.83253E-01
 1.00000E+01 1.34963E-01
 1.10000E+01 7.77216E-02
 1.20000E+01 5.29467E-02
 1.30000E+01 4.20408E-02
 1.40000E+01 3.72666E-02
 1.50000E+01 3.43944E-02
 1.60000E+01 3.21667E-02
 1.70000E+01 3.10208E-02
 1.80000E+01 2.95407E-02
 1.90000E+01 2.83475E-02
 2.00000E+01 2.75500E-02
 2.10000E+01 2.68184E-02
 2.20000E+01 2.56809E-02
 2.30000E+01 2.49230E-02
 2.40000E+01 2.40672E-02
 2.50000E+01 2.30208E-02
 2.60000E+01 2.23420E-02
 2.70000E+01 2.18495E-02
 2.80000E+01 2.11528E-02
 2.90000E+01 2.04885E-02
 3.00000E+01 1.99934E-02
