# n + 208Pb: Gamma-ray intensity - 208Pb: Level 18 --> Level  1 - gamma energy    1.647349
# E-initial  =   4.261871 E-final=   2.614522
# E-threshold= 4.28254E+00
# # energies =    67
#    E           xs
 1.00000E-11 0.00000E+00
 2.53000E-08 0.00000E+00
 2.00000E-07 0.00000E+00
 1.00000E-06 0.00000E+00
 1.00000E-03 0.00000E+00
 2.00000E-03 0.00000E+00
 5.00000E-03 0.00000E+00
 1.00000E-02 0.00000E+00
 2.00000E-02 0.00000E+00
 5.00000E-02 0.00000E+00
 1.00000E-01 0.00000E+00
 2.00000E-01 0.00000E+00
 3.00000E-01 0.00000E+00
 4.00000E-01 0.00000E+00
 5.00000E-01 0.00000E+00
 7.50000E-01 0.00000E+00
 1.00000E+00 0.00000E+00
 1.20000E+00 0.00000E+00
 1.40000E+00 0.00000E+00
 1.60000E+00 0.00000E+00
 1.80000E+00 0.00000E+00
 2.00000E+00 0.00000E+00
 2.20000E+00 0.00000E+00
 2.40000E+00 0.00000E+00
 2.60000E+00 0.00000E+00
 2.80000E+00 0.00000E+00
 3.00000E+00 0.00000E+00
 3.20000E+00 0.00000E+00
 3.40000E+00 0.00000E+00
 3.60000E+00 0.00000E+00
 3.80000E+00 0.00000E+00
 4.00000E+00 0.00000E+00
 4.20000E+00 0.00000E+00
 4.40000E+00 1.48904E+01
 4.60000E+00 2.58012E+01
 4.80000E+00 3.21539E+01
 5.00000E+00 3.44746E+01
 5.50000E+00 3.23441E+01
 6.00000E+00 2.87825E+01
 6.50000E+00 2.60983E+01
 7.00000E+00 2.40948E+01
 7.50000E+00 2.28258E+01
 8.00000E+00 2.08295E+01
 8.50000E+00 1.75494E+01
 9.00000E+00 1.39069E+01
 9.50000E+00 1.03763E+01
 1.00000E+01 7.48302E+00
 1.10000E+01 3.74893E+00
 1.20000E+01 2.10340E+00
 1.30000E+01 1.40402E+00
 1.40000E+01 1.10805E+00
 1.50000E+01 9.61106E-01
 1.60000E+01 8.65839E-01
 1.70000E+01 8.15369E-01
 1.80000E+01 7.51526E-01
 1.90000E+01 7.00144E-01
 2.00000E+01 6.59043E-01
 2.10000E+01 6.24462E-01
 2.20000E+01 5.86031E-01
 2.30000E+01 5.56522E-01
 2.40000E+01 5.25375E-01
 2.50000E+01 4.88076E-01
 2.60000E+01 4.59818E-01
 2.70000E+01 4.41293E-01
 2.80000E+01 4.18429E-01
 2.90000E+01 4.01326E-01
 3.00000E+01 3.85137E-01
