# n + 208Pb: Gamma-ray intensity - 208Pb: Level 23 --> Level  4 - gamma energy    0.715196
# E-initial  =   4.423647 E-final=   3.708451
# E-threshold= 4.44510E+00
# # energies =    67
#    E           xs
 1.00000E-11 0.00000E+00
 2.53000E-08 0.00000E+00
 2.00000E-07 0.00000E+00
 1.00000E-06 0.00000E+00
 1.00000E-03 0.00000E+00
 2.00000E-03 0.00000E+00
 5.00000E-03 0.00000E+00
 1.00000E-02 0.00000E+00
 2.00000E-02 0.00000E+00
 5.00000E-02 0.00000E+00
 1.00000E-01 0.00000E+00
 2.00000E-01 0.00000E+00
 3.00000E-01 0.00000E+00
 4.00000E-01 0.00000E+00
 5.00000E-01 0.00000E+00
 7.50000E-01 0.00000E+00
 1.00000E+00 0.00000E+00
 1.20000E+00 0.00000E+00
 1.40000E+00 0.00000E+00
 1.60000E+00 0.00000E+00
 1.80000E+00 0.00000E+00
 2.00000E+00 0.00000E+00
 2.20000E+00 0.00000E+00
 2.40000E+00 0.00000E+00
 2.60000E+00 0.00000E+00
 2.80000E+00 0.00000E+00
 3.00000E+00 0.00000E+00
 3.20000E+00 0.00000E+00
 3.40000E+00 0.00000E+00
 3.60000E+00 0.00000E+00
 3.80000E+00 0.00000E+00
 4.00000E+00 0.00000E+00
 4.20000E+00 0.00000E+00
 4.40000E+00 0.00000E+00
 4.60000E+00 7.58621E-01
 4.80000E+00 1.59491E+00
 5.00000E+00 2.17720E+00
 5.50000E+00 3.47765E+00
 6.00000E+00 4.82546E+00
 6.50000E+00 5.74109E+00
 7.00000E+00 6.30064E+00
 7.50000E+00 6.81053E+00
 8.00000E+00 7.18978E+00
 8.50000E+00 7.16148E+00
 9.00000E+00 6.53929E+00
 9.50000E+00 5.52551E+00
 1.00000E+01 4.38778E+00
 1.10000E+01 2.51912E+00
 1.20000E+01 1.47823E+00
 1.30000E+01 1.01129E+00
 1.40000E+01 8.06171E-01
 1.50000E+01 7.09088E-01
 1.60000E+01 6.50190E-01
 1.70000E+01 6.14863E-01
 1.80000E+01 5.73082E-01
 1.90000E+01 5.37258E-01
 2.00000E+01 5.09927E-01
 2.10000E+01 4.83618E-01
 2.20000E+01 4.56711E-01
 2.30000E+01 4.33937E-01
 2.40000E+01 4.09433E-01
 2.50000E+01 3.79568E-01
 2.60000E+01 3.57284E-01
 2.70000E+01 3.37106E-01
 2.80000E+01 3.20646E-01
 2.90000E+01 3.06885E-01
 3.00000E+01 2.93572E-01
