# n + 208Pb: Gamma-ray intensity - 208Pb: Level 27 --> Level 15 - gamma energy    0.473989
# E-initial  =   4.680266 E-final=   4.206277
# E-threshold= 4.70296E+00
# # energies =    67
#    E           xs
 1.00000E-11 0.00000E+00
 2.53000E-08 0.00000E+00
 2.00000E-07 0.00000E+00
 1.00000E-06 0.00000E+00
 1.00000E-03 0.00000E+00
 2.00000E-03 0.00000E+00
 5.00000E-03 0.00000E+00
 1.00000E-02 0.00000E+00
 2.00000E-02 0.00000E+00
 5.00000E-02 0.00000E+00
 1.00000E-01 0.00000E+00
 2.00000E-01 0.00000E+00
 3.00000E-01 0.00000E+00
 4.00000E-01 0.00000E+00
 5.00000E-01 0.00000E+00
 7.50000E-01 0.00000E+00
 1.00000E+00 0.00000E+00
 1.20000E+00 0.00000E+00
 1.40000E+00 0.00000E+00
 1.60000E+00 0.00000E+00
 1.80000E+00 0.00000E+00
 2.00000E+00 0.00000E+00
 2.20000E+00 0.00000E+00
 2.40000E+00 0.00000E+00
 2.60000E+00 0.00000E+00
 2.80000E+00 0.00000E+00
 3.00000E+00 0.00000E+00
 3.20000E+00 0.00000E+00
 3.40000E+00 0.00000E+00
 3.60000E+00 0.00000E+00
 3.80000E+00 0.00000E+00
 4.00000E+00 0.00000E+00
 4.20000E+00 0.00000E+00
 4.40000E+00 0.00000E+00
 4.60000E+00 0.00000E+00
 4.80000E+00 2.43985E-01
 5.00000E+00 1.02358E+00
 5.50000E+00 2.57031E+00
 6.00000E+00 3.37059E+00
 6.50000E+00 4.26329E+00
 7.00000E+00 5.24773E+00
 7.50000E+00 6.24161E+00
 8.00000E+00 7.21970E+00
 8.50000E+00 7.98476E+00
 9.00000E+00 8.11078E+00
 9.50000E+00 7.51454E+00
 1.00000E+01 6.41416E+00
 1.10000E+01 4.06963E+00
 1.20000E+01 2.44411E+00
 1.30000E+01 1.65457E+00
 1.40000E+01 1.30491E+00
 1.50000E+01 1.14744E+00
 1.60000E+01 1.06740E+00
 1.70000E+01 1.02412E+00
 1.80000E+01 9.68688E-01
 1.90000E+01 9.18841E-01
 2.00000E+01 8.91735E-01
 2.10000E+01 8.54478E-01
 2.20000E+01 8.15819E-01
 2.30000E+01 7.87099E-01
 2.40000E+01 7.52110E-01
 2.50000E+01 7.09851E-01
 2.60000E+01 6.79139E-01
 2.70000E+01 6.41825E-01
 2.80000E+01 6.11107E-01
 2.90000E+01 5.88076E-01
 3.00000E+01 5.66705E-01
