# n + 208Pb: Gamma-ray intensity - 207Pb: Level  1 --> Level  0 - gamma energy    0.569698
# E-initial  =   0.569698 E-final=   0.000000
# E-threshold= 7.97607E+00
# # energies = 67
#    E         xs
 1.000E-11 0.00000E+00
 2.530E-08 0.00000E+00
 2.000E-07 0.00000E+00
 1.000E-06 0.00000E+00
 1.000E-03 0.00000E+00
 2.000E-03 0.00000E+00
 5.000E-03 0.00000E+00
 1.000E-02 0.00000E+00
 2.000E-02 0.00000E+00
 5.000E-02 0.00000E+00
 1.000E-01 0.00000E+00
 2.000E-01 0.00000E+00
 3.000E-01 0.00000E+00
 4.000E-01 0.00000E+00
 5.000E-01 0.00000E+00
 7.500E-01 0.00000E+00
 1.000E+00 0.00000E+00
 1.200E+00 0.00000E+00
 1.400E+00 0.00000E+00
 1.600E+00 0.00000E+00
 1.800E+00 0.00000E+00
 2.000E+00 0.00000E+00
 2.200E+00 0.00000E+00
 2.400E+00 0.00000E+00
 2.600E+00 0.00000E+00
 2.800E+00 0.00000E+00
 3.000E+00 0.00000E+00
 3.200E+00 0.00000E+00
 3.400E+00 0.00000E+00
 3.600E+00 0.00000E+00
 3.800E+00 0.00000E+00
 4.000E+00 0.00000E+00
 4.200E+00 0.00000E+00
 4.400E+00 0.00000E+00
 4.600E+00 0.00000E+00
 4.800E+00 0.00000E+00
 5.000E+00 0.00000E+00
 5.500E+00 0.00000E+00
 6.000E+00 0.00000E+00
 6.500E+00 0.00000E+00
 7.000E+00 0.00000E+00
 7.500E+00 0.00000E+00
 8.000E+00 3.53936E-01
 8.500E+00 8.53633E+01
 9.000E+00 2.87145E+02
 9.500E+00 4.72295E+02
 1.000E+01 5.94542E+02
 1.100E+01 7.26471E+02
 1.200E+01 7.62258E+02
 1.300E+01 7.78444E+02
 1.400E+01 7.84575E+02
 1.500E+01 7.68626E+02
 1.600E+01 7.15273E+02
 1.700E+01 6.12347E+02
 1.800E+01 4.87297E+02
 1.900E+01 3.72275E+02
 2.000E+01 2.88986E+02
 2.100E+01 2.27155E+02
 2.200E+01 1.89967E+02
 2.300E+01 1.63944E+02
 2.400E+01 1.47143E+02
 2.500E+01 1.34741E+02
 2.600E+01 1.25842E+02
 2.700E+01 1.17627E+02
 2.800E+01 1.11621E+02
 2.900E+01 1.06547E+02
 3.000E+01 1.02230E+02
