# n + 208Pb: Gamma-ray intensity - 208Pb: Level 29 --> Level  8 - gamma energy    0.713289
# E-initial  =   4.708727 E-final=   3.995438
# E-threshold= 4.73156E+00
# # energies =    67
#    E           xs
 1.00000E-11 0.00000E+00
 2.53000E-08 0.00000E+00
 2.00000E-07 0.00000E+00
 1.00000E-06 0.00000E+00
 1.00000E-03 0.00000E+00
 2.00000E-03 0.00000E+00
 5.00000E-03 0.00000E+00
 1.00000E-02 0.00000E+00
 2.00000E-02 0.00000E+00
 5.00000E-02 0.00000E+00
 1.00000E-01 0.00000E+00
 2.00000E-01 0.00000E+00
 3.00000E-01 0.00000E+00
 4.00000E-01 0.00000E+00
 5.00000E-01 0.00000E+00
 7.50000E-01 0.00000E+00
 1.00000E+00 0.00000E+00
 1.20000E+00 0.00000E+00
 1.40000E+00 0.00000E+00
 1.60000E+00 0.00000E+00
 1.80000E+00 0.00000E+00
 2.00000E+00 0.00000E+00
 2.20000E+00 0.00000E+00
 2.40000E+00 0.00000E+00
 2.60000E+00 0.00000E+00
 2.80000E+00 0.00000E+00
 3.00000E+00 0.00000E+00
 3.20000E+00 0.00000E+00
 3.40000E+00 0.00000E+00
 3.60000E+00 0.00000E+00
 3.80000E+00 0.00000E+00
 4.00000E+00 0.00000E+00
 4.20000E+00 0.00000E+00
 4.40000E+00 0.00000E+00
 4.60000E+00 0.00000E+00
 4.80000E+00 4.46404E-01
 5.00000E+00 9.69315E-01
 5.50000E+00 1.46985E+00
 6.00000E+00 1.38745E+00
 6.50000E+00 1.28078E+00
 7.00000E+00 1.20535E+00
 7.50000E+00 1.14653E+00
 8.00000E+00 1.08271E+00
 8.50000E+00 9.70178E-01
 9.00000E+00 8.08174E-01
 9.50000E+00 6.38245E-01
 1.00000E+01 4.84879E-01
 1.10000E+01 2.70942E-01
 1.20000E+01 1.69380E-01
 1.30000E+01 1.25479E-01
 1.40000E+01 1.05968E-01
 1.50000E+01 9.59438E-02
 1.60000E+01 8.93576E-02
 1.70000E+01 8.53055E-02
 1.80000E+01 8.10808E-02
 1.90000E+01 7.75419E-02
 2.00000E+01 7.46557E-02
 2.10000E+01 7.19148E-02
 2.20000E+01 6.90616E-02
 2.30000E+01 6.64393E-02
 2.40000E+01 6.37106E-02
 2.50000E+01 6.10604E-02
 2.60000E+01 5.86150E-02
 2.70000E+01 5.68019E-02
 2.80000E+01 5.44692E-02
 2.90000E+01 5.27667E-02
 3.00000E+01 5.10951E-02
