# n + 208Pb: Gamma-ray intensity - 208Pb: Level 19 --> Level  0 - gamma energy    4.229500
# E-initial  =   4.229500 E-final=   0.000000
# E-threshold= 4.25001E+00
# # energies = 67
#    E         xs
 1.000E-11 0.00000E+00
 2.530E-08 0.00000E+00
 2.000E-07 0.00000E+00
 1.000E-06 0.00000E+00
 1.000E-03 0.00000E+00
 2.000E-03 0.00000E+00
 5.000E-03 0.00000E+00
 1.000E-02 0.00000E+00
 2.000E-02 0.00000E+00
 5.000E-02 0.00000E+00
 1.000E-01 0.00000E+00
 2.000E-01 0.00000E+00
 3.000E-01 0.00000E+00
 4.000E-01 0.00000E+00
 5.000E-01 0.00000E+00
 7.500E-01 0.00000E+00
 1.000E+00 0.00000E+00
 1.200E+00 0.00000E+00
 1.400E+00 0.00000E+00
 1.600E+00 0.00000E+00
 1.800E+00 0.00000E+00
 2.000E+00 0.00000E+00
 2.200E+00 0.00000E+00
 2.400E+00 0.00000E+00
 2.600E+00 0.00000E+00
 2.800E+00 0.00000E+00
 3.000E+00 0.00000E+00
 3.200E+00 0.00000E+00
 3.400E+00 0.00000E+00
 3.600E+00 0.00000E+00
 3.800E+00 0.00000E+00
 4.000E+00 0.00000E+00
 4.200E+00 0.00000E+00
 4.400E+00 8.21651E+00
 4.600E+00 1.22121E+01
 4.800E+00 1.36004E+01
 5.000E+00 1.35229E+01
 5.500E+00 1.15138E+01
 6.000E+00 9.79775E+00
 6.500E+00 8.65129E+00
 7.000E+00 7.83400E+00
 7.500E+00 7.28572E+00
 8.000E+00 6.34379E+00
 8.500E+00 5.18732E+00
 9.000E+00 4.07538E+00
 9.500E+00 3.14840E+00
 1.000E+01 2.29981E+00
 1.100E+01 1.29426E+00
 1.200E+01 8.44629E-01
 1.300E+01 6.14510E-01
 1.400E+01 5.05181E-01
 1.500E+01 4.44260E-01
 1.600E+01 4.09121E-01
 1.700E+01 3.93846E-01
 1.800E+01 3.80207E-01
 1.900E+01 3.59215E-01
 2.000E+01 3.55111E-01
 2.100E+01 3.35892E-01
 2.200E+01 3.41085E-01
 2.300E+01 3.20378E-01
 2.400E+01 3.14684E-01
 2.500E+01 3.10885E-01
 2.600E+01 2.87443E-01
 2.700E+01 2.84615E-01
 2.800E+01 2.75228E-01
 2.900E+01 2.75293E-01
 3.000E+01 2.55525E-01
