# n + 208Pb: Gamma-ray intensity - 208Pb: Level 17 --> Level  3 - gamma energy    0.779717
# E-initial  =   4.254795 E-final=   3.475078
# E-threshold= 4.27543E+00
# # energies =    67
#    E           xs
 1.00000E-11 0.00000E+00
 2.53000E-08 0.00000E+00
 2.00000E-07 0.00000E+00
 1.00000E-06 0.00000E+00
 1.00000E-03 0.00000E+00
 2.00000E-03 0.00000E+00
 5.00000E-03 0.00000E+00
 1.00000E-02 0.00000E+00
 2.00000E-02 0.00000E+00
 5.00000E-02 0.00000E+00
 1.00000E-01 0.00000E+00
 2.00000E-01 0.00000E+00
 3.00000E-01 0.00000E+00
 4.00000E-01 0.00000E+00
 5.00000E-01 0.00000E+00
 7.50000E-01 0.00000E+00
 1.00000E+00 0.00000E+00
 1.20000E+00 0.00000E+00
 1.40000E+00 0.00000E+00
 1.60000E+00 0.00000E+00
 1.80000E+00 0.00000E+00
 2.00000E+00 0.00000E+00
 2.20000E+00 0.00000E+00
 2.40000E+00 0.00000E+00
 2.60000E+00 0.00000E+00
 2.80000E+00 0.00000E+00
 3.00000E+00 0.00000E+00
 3.20000E+00 0.00000E+00
 3.40000E+00 0.00000E+00
 3.60000E+00 0.00000E+00
 3.80000E+00 0.00000E+00
 4.00000E+00 0.00000E+00
 4.20000E+00 0.00000E+00
 4.40000E+00 2.11076E+00
 4.60000E+00 3.49908E+00
 4.80000E+00 4.35918E+00
 5.00000E+00 4.69230E+00
 5.50000E+00 4.33751E+00
 6.00000E+00 3.79834E+00
 6.50000E+00 3.42570E+00
 7.00000E+00 3.14947E+00
 7.50000E+00 2.94767E+00
 8.00000E+00 2.57635E+00
 8.50000E+00 2.05978E+00
 9.00000E+00 1.58597E+00
 9.50000E+00 1.16261E+00
 1.00000E+01 8.43308E-01
 1.10000E+01 4.60116E-01
 1.20000E+01 2.96166E-01
 1.30000E+01 2.24370E-01
 1.40000E+01 1.93576E-01
 1.50000E+01 1.75604E-01
 1.60000E+01 1.62004E-01
 1.70000E+01 1.55363E-01
 1.80000E+01 1.45710E-01
 1.90000E+01 1.38140E-01
 2.00000E+01 1.32645E-01
 2.10000E+01 1.28065E-01
 2.20000E+01 1.21057E-01
 2.30000E+01 1.16710E-01
 2.40000E+01 1.12099E-01
 2.50000E+01 1.05640E-01
 2.60000E+01 1.01786E-01
 2.70000E+01 9.91325E-02
 2.80000E+01 9.58450E-02
 2.90000E+01 9.22052E-02
 3.00000E+01 8.95244E-02
