# n + 208Pb: Gamma-ray intensity - 207Pb: Level  2 --> Level  0 - gamma energy    0.897800
# E-initial  =   0.897800 E-final=   0.000000
# E-threshold= 8.30570E+00
# # energies = 67
#    E         xs
 1.000E-11 0.00000E+00
 2.530E-08 0.00000E+00
 2.000E-07 0.00000E+00
 1.000E-06 0.00000E+00
 1.000E-03 0.00000E+00
 2.000E-03 0.00000E+00
 5.000E-03 0.00000E+00
 1.000E-02 0.00000E+00
 2.000E-02 0.00000E+00
 5.000E-02 0.00000E+00
 1.000E-01 0.00000E+00
 2.000E-01 0.00000E+00
 3.000E-01 0.00000E+00
 4.000E-01 0.00000E+00
 5.000E-01 0.00000E+00
 7.500E-01 0.00000E+00
 1.000E+00 0.00000E+00
 1.200E+00 0.00000E+00
 1.400E+00 0.00000E+00
 1.600E+00 0.00000E+00
 1.800E+00 0.00000E+00
 2.000E+00 0.00000E+00
 2.200E+00 0.00000E+00
 2.400E+00 0.00000E+00
 2.600E+00 0.00000E+00
 2.800E+00 0.00000E+00
 3.000E+00 0.00000E+00
 3.200E+00 0.00000E+00
 3.400E+00 0.00000E+00
 3.600E+00 0.00000E+00
 3.800E+00 0.00000E+00
 4.000E+00 0.00000E+00
 4.200E+00 0.00000E+00
 4.400E+00 0.00000E+00
 4.600E+00 0.00000E+00
 4.800E+00 0.00000E+00
 5.000E+00 0.00000E+00
 5.500E+00 0.00000E+00
 6.000E+00 0.00000E+00
 6.500E+00 0.00000E+00
 7.000E+00 0.00000E+00
 7.500E+00 0.00000E+00
 8.000E+00 0.00000E+00
 8.500E+00 1.74994E+00
 9.000E+00 3.13687E+01
 9.500E+00 8.60006E+01
 1.000E+01 1.41031E+02
 1.100E+01 2.21827E+02
 1.200E+01 2.33312E+02
 1.300E+01 2.05730E+02
 1.400E+01 1.78411E+02
 1.500E+01 1.59755E+02
 1.600E+01 1.38233E+02
 1.700E+01 1.12344E+02
 1.800E+01 8.80310E+01
 1.900E+01 6.94226E+01
 2.000E+01 5.57277E+01
 2.100E+01 4.55775E+01
 2.200E+01 3.89742E+01
 2.300E+01 3.41794E+01
 2.400E+01 3.07993E+01
 2.500E+01 2.85984E+01
 2.600E+01 2.69646E+01
 2.700E+01 2.51824E+01
 2.800E+01 2.42701E+01
 2.900E+01 2.31252E+01
 3.000E+01 2.22957E+01
