# n + 208Pb: Gamma-ray intensity - 209Pb: Level  2 --> Level  0 - gamma energy    1.423000
# E-initial  =   1.423000 E-final=   0.000000
# E-threshold= 0.00000E+00
# # energies =    67
#    E           xs
 1.00000E-11 0.00000E+00
 2.53000E-08 0.00000E+00
 2.00000E-07 0.00000E+00
 1.00000E-06 0.00000E+00
 1.00000E-03 0.00000E+00
 2.00000E-03 0.00000E+00
 5.00000E-03 0.00000E+00
 1.00000E-02 0.00000E+00
 2.00000E-02 0.00000E+00
 5.00000E-02 1.06778E-09
 1.00000E-01 3.28031E-08
 2.00000E-01 3.23504E-07
 3.00000E-01 3.24027E-05
 4.00000E-01 9.00931E-05
 5.00000E-01 1.64880E-04
 7.50000E-01 3.72991E-04
 1.00000E+00 2.10735E-03
 1.20000E+00 3.78913E-03
 1.40000E+00 7.12903E-03
 1.60000E+00 1.11925E-02
 1.80000E+00 1.67908E-02
 2.00000E+00 2.55234E-02
 2.20000E+00 3.67356E-02
 2.40000E+00 5.18767E-02
 2.60000E+00 7.20684E-02
 2.80000E+00 9.09808E-02
 3.00000E+00 1.01248E-01
 3.20000E+00 1.11417E-01
 3.40000E+00 5.36842E-02
 3.60000E+00 3.89427E-02
 3.80000E+00 3.11788E-02
 4.00000E+00 2.33012E-02
 4.20000E+00 1.22028E-02
 4.40000E+00 9.35594E-03
 4.60000E+00 8.16308E-03
 4.80000E+00 1.29954E-02
 5.00000E+00 1.29196E-02
 5.50000E+00 1.60803E-02
 6.00000E+00 2.08777E-02
 6.50000E+00 2.88252E-02
 7.00000E+00 4.13190E-02
 7.50000E+00 6.17027E-02
 8.00000E+00 9.44892E-02
 8.50000E+00 1.44944E-01
 9.00000E+00 2.04321E-01
 9.50000E+00 2.44115E-01
 1.00000E+01 2.50849E-01
 1.10000E+01 2.41331E-01
 1.20000E+01 2.60348E-01
 1.30000E+01 2.85989E-01
 1.40000E+01 2.92973E-01
 1.50000E+01 2.69875E-01
 1.60000E+01 2.24863E-01
 1.70000E+01 1.84830E-01
 1.80000E+01 1.52808E-01
 1.90000E+01 1.35139E-01
 2.00000E+01 1.21772E-01
 2.10000E+01 1.05906E-01
 2.20000E+01 9.71001E-02
 2.30000E+01 8.64987E-02
 2.40000E+01 7.85885E-02
 2.50000E+01 7.31021E-02
 2.60000E+01 6.85231E-02
 2.70000E+01 6.47270E-02
 2.80000E+01 6.16311E-02
 2.90000E+01 5.92136E-02
 3.00000E+01 5.71154E-02
