# n + 208Pb: Gamma-ray intensity - 208Pb: Level 29 --> Level  4 - gamma energy    1.000276
# E-initial  =   4.708727 E-final=   3.708451
# E-threshold= 4.73156E+00
# # energies =    67
#    E           xs
 1.00000E-11 0.00000E+00
 2.53000E-08 0.00000E+00
 2.00000E-07 0.00000E+00
 1.00000E-06 0.00000E+00
 1.00000E-03 0.00000E+00
 2.00000E-03 0.00000E+00
 5.00000E-03 0.00000E+00
 1.00000E-02 0.00000E+00
 2.00000E-02 0.00000E+00
 5.00000E-02 0.00000E+00
 1.00000E-01 0.00000E+00
 2.00000E-01 0.00000E+00
 3.00000E-01 0.00000E+00
 4.00000E-01 0.00000E+00
 5.00000E-01 0.00000E+00
 7.50000E-01 0.00000E+00
 1.00000E+00 0.00000E+00
 1.20000E+00 0.00000E+00
 1.40000E+00 0.00000E+00
 1.60000E+00 0.00000E+00
 1.80000E+00 0.00000E+00
 2.00000E+00 0.00000E+00
 2.20000E+00 0.00000E+00
 2.40000E+00 0.00000E+00
 2.60000E+00 0.00000E+00
 2.80000E+00 0.00000E+00
 3.00000E+00 0.00000E+00
 3.20000E+00 0.00000E+00
 3.40000E+00 0.00000E+00
 3.60000E+00 0.00000E+00
 3.80000E+00 0.00000E+00
 4.00000E+00 0.00000E+00
 4.20000E+00 0.00000E+00
 4.40000E+00 0.00000E+00
 4.60000E+00 0.00000E+00
 4.80000E+00 3.71973E+00
 5.00000E+00 8.07694E+00
 5.50000E+00 1.22476E+01
 6.00000E+00 1.15607E+01
 6.50000E+00 1.06719E+01
 7.00000E+00 1.00432E+01
 7.50000E+00 9.55324E+00
 8.00000E+00 9.02150E+00
 8.50000E+00 8.08381E+00
 9.00000E+00 6.73388E+00
 9.50000E+00 5.31793E+00
 1.00000E+01 4.04001E+00
 1.10000E+01 2.25746E+00
 1.20000E+01 1.41127E+00
 1.30000E+01 1.04551E+00
 1.40000E+01 8.82962E-01
 1.50000E+01 7.99441E-01
 1.60000E+01 7.44566E-01
 1.70000E+01 7.10803E-01
 1.80000E+01 6.75600E-01
 1.90000E+01 6.45900E-01
 2.00000E+01 6.22063E-01
 2.10000E+01 5.99223E-01
 2.20000E+01 5.75448E-01
 2.30000E+01 5.53597E-01
 2.40000E+01 5.30859E-01
 2.50000E+01 5.08777E-01
 2.60000E+01 4.88399E-01
 2.70000E+01 4.73291E-01
 2.80000E+01 4.53856E-01
 2.90000E+01 4.39669E-01
 3.00000E+01 4.25740E-01
