# n + 208Pb: Gamma-ray intensity - 207Pb: Level  8 --> Level  4 - gamma energy    0.387971
# E-initial  =   2.727892 E-final=   2.339921
# E-threshold= 1.01447E+01
# # energies =    67
#    E           xs
 1.00000E-11 0.00000E+00
 2.53000E-08 0.00000E+00
 2.00000E-07 0.00000E+00
 1.00000E-06 0.00000E+00
 1.00000E-03 0.00000E+00
 2.00000E-03 0.00000E+00
 5.00000E-03 0.00000E+00
 1.00000E-02 0.00000E+00
 2.00000E-02 0.00000E+00
 5.00000E-02 0.00000E+00
 1.00000E-01 0.00000E+00
 2.00000E-01 0.00000E+00
 3.00000E-01 0.00000E+00
 4.00000E-01 0.00000E+00
 5.00000E-01 0.00000E+00
 7.50000E-01 0.00000E+00
 1.00000E+00 0.00000E+00
 1.20000E+00 0.00000E+00
 1.40000E+00 0.00000E+00
 1.60000E+00 0.00000E+00
 1.80000E+00 0.00000E+00
 2.00000E+00 0.00000E+00
 2.20000E+00 0.00000E+00
 2.40000E+00 0.00000E+00
 2.60000E+00 0.00000E+00
 2.80000E+00 0.00000E+00
 3.00000E+00 0.00000E+00
 3.20000E+00 0.00000E+00
 3.40000E+00 0.00000E+00
 3.60000E+00 0.00000E+00
 3.80000E+00 0.00000E+00
 4.00000E+00 0.00000E+00
 4.20000E+00 0.00000E+00
 4.40000E+00 0.00000E+00
 4.60000E+00 0.00000E+00
 4.80000E+00 0.00000E+00
 5.00000E+00 0.00000E+00
 5.50000E+00 0.00000E+00
 6.00000E+00 0.00000E+00
 6.50000E+00 0.00000E+00
 7.00000E+00 0.00000E+00
 7.50000E+00 0.00000E+00
 8.00000E+00 0.00000E+00
 8.50000E+00 0.00000E+00
 9.00000E+00 0.00000E+00
 9.50000E+00 0.00000E+00
 1.00000E+01 0.00000E+00
 1.10000E+01 2.66658E+00
 1.20000E+01 9.14566E+00
 1.30000E+01 1.45392E+01
 1.40000E+01 1.71581E+01
 1.50000E+01 1.79563E+01
 1.60000E+01 1.74309E+01
 1.70000E+01 1.54167E+01
 1.80000E+01 1.24827E+01
 1.90000E+01 9.49156E+00
 2.00000E+01 7.14827E+00
 2.10000E+01 5.47337E+00
 2.20000E+01 4.45712E+00
 2.30000E+01 3.80614E+00
 2.40000E+01 3.40613E+00
 2.50000E+01 3.14789E+00
 2.60000E+01 2.94688E+00
 2.70000E+01 2.79355E+00
 2.80000E+01 2.69445E+00
 2.90000E+01 2.57310E+00
 3.00000E+01 2.48789E+00
