# n + 208Pb: Gamma-ray intensity - 208Pb: Level 16 --> Level  0 - gamma energy    4.159000
# E-initial  =   4.159000 E-final=   0.000000
# E-threshold= 4.17917E+00
# # energies = 67
#    E         xs
 1.000E-11 0.00000E+00
 2.530E-08 0.00000E+00
 2.000E-07 0.00000E+00
 1.000E-06 0.00000E+00
 1.000E-03 0.00000E+00
 2.000E-03 0.00000E+00
 5.000E-03 0.00000E+00
 1.000E-02 0.00000E+00
 2.000E-02 0.00000E+00
 5.000E-02 0.00000E+00
 1.000E-01 0.00000E+00
 2.000E-01 0.00000E+00
 3.000E-01 0.00000E+00
 4.000E-01 0.00000E+00
 5.000E-01 0.00000E+00
 7.500E-01 0.00000E+00
 1.000E+00 0.00000E+00
 1.200E+00 0.00000E+00
 1.400E+00 0.00000E+00
 1.600E+00 0.00000E+00
 1.800E+00 0.00000E+00
 2.000E+00 0.00000E+00
 2.200E+00 0.00000E+00
 2.400E+00 0.00000E+00
 2.600E+00 0.00000E+00
 2.800E+00 0.00000E+00
 3.000E+00 0.00000E+00
 3.200E+00 0.00000E+00
 3.400E+00 0.00000E+00
 3.600E+00 0.00000E+00
 3.800E+00 0.00000E+00
 4.000E+00 0.00000E+00
 4.200E+00 5.56461E+00
 4.400E+00 2.93230E+01
 4.600E+00 3.91741E+01
 4.800E+00 4.19998E+01
 5.000E+00 4.24342E+01
 5.500E+00 4.24450E+01
 6.000E+00 4.13126E+01
 6.500E+00 3.73300E+01
 7.000E+00 3.28256E+01
 7.500E+00 2.94787E+01
 8.000E+00 2.51029E+01
 8.500E+00 2.03862E+01
 9.000E+00 1.59885E+01
 9.500E+00 1.24254E+01
 1.000E+01 9.31046E+00
 1.100E+01 5.38638E+00
 1.200E+01 3.61622E+00
 1.300E+01 2.71284E+00
 1.400E+01 2.29829E+00
 1.500E+01 2.01279E+00
 1.600E+01 1.84454E+00
 1.700E+01 1.76748E+00
 1.800E+01 1.67058E+00
 1.900E+01 1.55835E+00
 2.000E+01 1.52012E+00
 2.100E+01 1.41962E+00
 2.200E+01 1.40722E+00
 2.300E+01 1.30600E+00
 2.400E+01 1.27162E+00
 2.500E+01 1.24111E+00
 2.600E+01 1.14032E+00
 2.700E+01 1.11821E+00
 2.800E+01 1.08214E+00
 2.900E+01 1.07191E+00
 3.000E+01 9.96700E-01
