# n + 208Pb: Gamma-ray intensity - 208Pb: Level 19 --> Level  4 - gamma energy    0.588109
# E-initial  =   4.296560 E-final=   3.708451
# E-threshold= 4.31740E+00
# # energies =    67
#    E           xs
 1.00000E-11 0.00000E+00
 2.53000E-08 0.00000E+00
 2.00000E-07 0.00000E+00
 1.00000E-06 0.00000E+00
 1.00000E-03 0.00000E+00
 2.00000E-03 0.00000E+00
 5.00000E-03 0.00000E+00
 1.00000E-02 0.00000E+00
 2.00000E-02 0.00000E+00
 5.00000E-02 0.00000E+00
 1.00000E-01 0.00000E+00
 2.00000E-01 0.00000E+00
 3.00000E-01 0.00000E+00
 4.00000E-01 0.00000E+00
 5.00000E-01 0.00000E+00
 7.50000E-01 0.00000E+00
 1.00000E+00 0.00000E+00
 1.20000E+00 0.00000E+00
 1.40000E+00 0.00000E+00
 1.60000E+00 0.00000E+00
 1.80000E+00 0.00000E+00
 2.00000E+00 0.00000E+00
 2.20000E+00 0.00000E+00
 2.40000E+00 0.00000E+00
 2.60000E+00 0.00000E+00
 2.80000E+00 0.00000E+00
 3.00000E+00 0.00000E+00
 3.20000E+00 0.00000E+00
 3.40000E+00 0.00000E+00
 3.60000E+00 0.00000E+00
 3.80000E+00 0.00000E+00
 4.00000E+00 0.00000E+00
 4.20000E+00 0.00000E+00
 4.40000E+00 1.00745E+01
 4.60000E+00 1.91953E+01
 4.80000E+00 2.54323E+01
 5.00000E+00 2.85897E+01
 5.50000E+00 2.88680E+01
 6.00000E+00 2.68399E+01
 6.50000E+00 2.53283E+01
 7.00000E+00 2.43408E+01
 7.50000E+00 2.39830E+01
 8.00000E+00 2.33618E+01
 8.50000E+00 2.13224E+01
 9.00000E+00 1.79408E+01
 9.50000E+00 1.41967E+01
 1.00000E+01 1.07488E+01
 1.10000E+01 5.86842E+00
 1.20000E+01 3.52739E+00
 1.30000E+01 2.51367E+00
 1.40000E+01 2.06846E+00
 1.50000E+01 1.84380E+00
 1.60000E+01 1.69821E+00
 1.70000E+01 1.60845E+00
 1.80000E+01 1.50969E+00
 1.90000E+01 1.42718E+00
 2.00000E+01 1.35890E+00
 2.10000E+01 1.29619E+00
 2.20000E+01 1.23319E+00
 2.30000E+01 1.17564E+00
 2.40000E+01 1.11838E+00
 2.50000E+01 1.05788E+00
 2.60000E+01 1.00502E+00
 2.70000E+01 9.66156E-01
 2.80000E+01 9.23468E-01
 2.90000E+01 8.89975E-01
 3.00000E+01 8.56901E-01
