# n + 208Pb: Gamma-ray intensity - 208Pb: Level 16 --> Level  1 - gamma energy    1.615068
# E-initial  =   4.229590 E-final=   2.614522
# E-threshold= 4.25010E+00
# # energies =    67
#    E           xs
 1.00000E-11 0.00000E+00
 2.53000E-08 0.00000E+00
 2.00000E-07 0.00000E+00
 1.00000E-06 0.00000E+00
 1.00000E-03 0.00000E+00
 2.00000E-03 0.00000E+00
 5.00000E-03 0.00000E+00
 1.00000E-02 0.00000E+00
 2.00000E-02 0.00000E+00
 5.00000E-02 0.00000E+00
 1.00000E-01 0.00000E+00
 2.00000E-01 0.00000E+00
 3.00000E-01 0.00000E+00
 4.00000E-01 0.00000E+00
 5.00000E-01 0.00000E+00
 7.50000E-01 0.00000E+00
 1.00000E+00 0.00000E+00
 1.20000E+00 0.00000E+00
 1.40000E+00 0.00000E+00
 1.60000E+00 0.00000E+00
 1.80000E+00 0.00000E+00
 2.00000E+00 0.00000E+00
 2.20000E+00 0.00000E+00
 2.40000E+00 0.00000E+00
 2.60000E+00 0.00000E+00
 2.80000E+00 0.00000E+00
 3.00000E+00 0.00000E+00
 3.20000E+00 0.00000E+00
 3.40000E+00 0.00000E+00
 3.60000E+00 0.00000E+00
 3.80000E+00 0.00000E+00
 4.00000E+00 0.00000E+00
 4.20000E+00 0.00000E+00
 4.40000E+00 3.69710E+01
 4.60000E+00 5.78899E+01
 4.80000E+00 6.81268E+01
 5.00000E+00 6.93695E+01
 5.50000E+00 5.80198E+01
 6.00000E+00 4.77966E+01
 6.50000E+00 4.14205E+01
 7.00000E+00 3.72564E+01
 7.50000E+00 3.45228E+01
 8.00000E+00 2.95279E+01
 8.50000E+00 2.29004E+01
 9.00000E+00 1.71069E+01
 9.50000E+00 1.20908E+01
 1.00000E+01 8.42181E+00
 1.10000E+01 4.18684E+00
 1.20000E+01 2.39673E+00
 1.30000E+01 1.61501E+00
 1.40000E+01 1.30939E+00
 1.50000E+01 1.14402E+00
 1.60000E+01 1.02427E+00
 1.70000E+01 9.95628E-01
 1.80000E+01 9.03933E-01
 1.90000E+01 8.34675E-01
 2.00000E+01 7.96772E-01
 2.10000E+01 7.73962E-01
 2.20000E+01 7.06435E-01
 2.30000E+01 6.85523E-01
 2.40000E+01 6.59931E-01
 2.50000E+01 5.95613E-01
 2.60000E+01 5.71197E-01
 2.70000E+01 5.59811E-01
 2.80000E+01 5.37135E-01
 2.90000E+01 5.00878E-01
 3.00000E+01 4.84072E-01
