# n + 208Pb: Gamma-ray intensity - 208Pb: Level 28 --> Level 18 - gamma energy    0.436452
# E-initial  =   4.698323 E-final=   4.261871
# E-threshold= 4.72111E+00
# # energies =    67
#    E           xs
 1.00000E-11 0.00000E+00
 2.53000E-08 0.00000E+00
 2.00000E-07 0.00000E+00
 1.00000E-06 0.00000E+00
 1.00000E-03 0.00000E+00
 2.00000E-03 0.00000E+00
 5.00000E-03 0.00000E+00
 1.00000E-02 0.00000E+00
 2.00000E-02 0.00000E+00
 5.00000E-02 0.00000E+00
 1.00000E-01 0.00000E+00
 2.00000E-01 0.00000E+00
 3.00000E-01 0.00000E+00
 4.00000E-01 0.00000E+00
 5.00000E-01 0.00000E+00
 7.50000E-01 0.00000E+00
 1.00000E+00 0.00000E+00
 1.20000E+00 0.00000E+00
 1.40000E+00 0.00000E+00
 1.60000E+00 0.00000E+00
 1.80000E+00 0.00000E+00
 2.00000E+00 0.00000E+00
 2.20000E+00 0.00000E+00
 2.40000E+00 0.00000E+00
 2.60000E+00 0.00000E+00
 2.80000E+00 0.00000E+00
 3.00000E+00 0.00000E+00
 3.20000E+00 0.00000E+00
 3.40000E+00 0.00000E+00
 3.60000E+00 0.00000E+00
 3.80000E+00 0.00000E+00
 4.00000E+00 0.00000E+00
 4.20000E+00 0.00000E+00
 4.40000E+00 0.00000E+00
 4.60000E+00 0.00000E+00
 4.80000E+00 4.85646E-01
 5.00000E+00 1.02450E+00
 5.50000E+00 1.41129E+00
 6.00000E+00 1.24842E+00
 6.50000E+00 1.10463E+00
 7.00000E+00 9.99312E-01
 7.50000E+00 9.09964E-01
 8.00000E+00 7.79419E-01
 8.50000E+00 6.17948E-01
 9.00000E+00 4.75911E-01
 9.50000E+00 3.52966E-01
 1.00000E+01 2.59952E-01
 1.10000E+01 1.49700E-01
 1.20000E+01 1.01983E-01
 1.30000E+01 8.09785E-02
 1.40000E+01 7.17835E-02
 1.50000E+01 6.62515E-02
 1.60000E+01 6.19606E-02
 1.70000E+01 5.97535E-02
 1.80000E+01 5.69022E-02
 1.90000E+01 5.45856E-02
 2.00000E+01 5.30673E-02
 2.10000E+01 5.16579E-02
 2.20000E+01 4.94668E-02
 2.30000E+01 4.80069E-02
 2.40000E+01 4.63582E-02
 2.50000E+01 4.43426E-02
 2.60000E+01 4.30350E-02
 2.70000E+01 4.20863E-02
 2.80000E+01 4.07444E-02
 2.90000E+01 3.94647E-02
 3.00000E+01 3.85109E-02
