# n + 208Pb: Gamma-ray intensity - 207Pb: Level  4 --> Level  2 - gamma energy    1.442223
# E-initial  =   2.339921 E-final=   0.897698
# E-threshold= 9.75488E+00
# # energies =    67
#    E           xs
 1.00000E-11 0.00000E+00
 2.53000E-08 0.00000E+00
 2.00000E-07 0.00000E+00
 1.00000E-06 0.00000E+00
 1.00000E-03 0.00000E+00
 2.00000E-03 0.00000E+00
 5.00000E-03 0.00000E+00
 1.00000E-02 0.00000E+00
 2.00000E-02 0.00000E+00
 5.00000E-02 0.00000E+00
 1.00000E-01 0.00000E+00
 2.00000E-01 0.00000E+00
 3.00000E-01 0.00000E+00
 4.00000E-01 0.00000E+00
 5.00000E-01 0.00000E+00
 7.50000E-01 0.00000E+00
 1.00000E+00 0.00000E+00
 1.20000E+00 0.00000E+00
 1.40000E+00 0.00000E+00
 1.60000E+00 0.00000E+00
 1.80000E+00 0.00000E+00
 2.00000E+00 0.00000E+00
 2.20000E+00 0.00000E+00
 2.40000E+00 0.00000E+00
 2.60000E+00 0.00000E+00
 2.80000E+00 0.00000E+00
 3.00000E+00 0.00000E+00
 3.20000E+00 0.00000E+00
 3.40000E+00 0.00000E+00
 3.60000E+00 0.00000E+00
 3.80000E+00 0.00000E+00
 4.00000E+00 0.00000E+00
 4.20000E+00 0.00000E+00
 4.40000E+00 0.00000E+00
 4.60000E+00 0.00000E+00
 4.80000E+00 0.00000E+00
 5.00000E+00 0.00000E+00
 5.50000E+00 0.00000E+00
 6.00000E+00 0.00000E+00
 6.50000E+00 0.00000E+00
 7.00000E+00 0.00000E+00
 7.50000E+00 0.00000E+00
 8.00000E+00 0.00000E+00
 8.50000E+00 0.00000E+00
 9.00000E+00 0.00000E+00
 9.50000E+00 0.00000E+00
 1.00000E+01 3.23625E-02
 1.10000E+01 1.14452E+00
 1.20000E+01 3.20288E+00
 1.30000E+01 4.88948E+00
 1.40000E+01 5.69586E+00
 1.50000E+01 5.90292E+00
 1.60000E+01 5.65990E+00
 1.70000E+01 4.95654E+00
 1.80000E+01 3.99392E+00
 1.90000E+01 3.03319E+00
 2.00000E+01 2.29088E+00
 2.10000E+01 1.76005E+00
 2.20000E+01 1.43709E+00
 2.30000E+01 1.22906E+00
 2.40000E+01 1.10123E+00
 2.50000E+01 1.01789E+00
 2.60000E+01 9.53319E-01
 2.70000E+01 9.03478E-01
 2.80000E+01 8.71379E-01
 2.90000E+01 8.32216E-01
 3.00000E+01 8.04231E-01
