# n + 208Pb: Gamma-ray intensity - 207Pb: Level  6 --> Level  4 - gamma energy    0.322555
# E-initial  =   2.662476 E-final=   2.339921
# E-threshold= 1.00790E+01
# # energies =    67
#    E           xs
 1.00000E-11 0.00000E+00
 2.53000E-08 0.00000E+00
 2.00000E-07 0.00000E+00
 1.00000E-06 0.00000E+00
 1.00000E-03 0.00000E+00
 2.00000E-03 0.00000E+00
 5.00000E-03 0.00000E+00
 1.00000E-02 0.00000E+00
 2.00000E-02 0.00000E+00
 5.00000E-02 0.00000E+00
 1.00000E-01 0.00000E+00
 2.00000E-01 0.00000E+00
 3.00000E-01 0.00000E+00
 4.00000E-01 0.00000E+00
 5.00000E-01 0.00000E+00
 7.50000E-01 0.00000E+00
 1.00000E+00 0.00000E+00
 1.20000E+00 0.00000E+00
 1.40000E+00 0.00000E+00
 1.60000E+00 0.00000E+00
 1.80000E+00 0.00000E+00
 2.00000E+00 0.00000E+00
 2.20000E+00 0.00000E+00
 2.40000E+00 0.00000E+00
 2.60000E+00 0.00000E+00
 2.80000E+00 0.00000E+00
 3.00000E+00 0.00000E+00
 3.20000E+00 0.00000E+00
 3.40000E+00 0.00000E+00
 3.60000E+00 0.00000E+00
 3.80000E+00 0.00000E+00
 4.00000E+00 0.00000E+00
 4.20000E+00 0.00000E+00
 4.40000E+00 0.00000E+00
 4.60000E+00 0.00000E+00
 4.80000E+00 0.00000E+00
 5.00000E+00 0.00000E+00
 5.50000E+00 0.00000E+00
 6.00000E+00 0.00000E+00
 6.50000E+00 0.00000E+00
 7.00000E+00 0.00000E+00
 7.50000E+00 0.00000E+00
 8.00000E+00 0.00000E+00
 8.50000E+00 0.00000E+00
 9.00000E+00 0.00000E+00
 9.50000E+00 0.00000E+00
 1.00000E+01 0.00000E+00
 1.10000E+01 2.72461E-01
 1.20000E+01 9.30498E-01
 1.30000E+01 1.48578E+00
 1.40000E+01 1.73630E+00
 1.50000E+01 1.78563E+00
 1.60000E+01 1.68942E+00
 1.70000E+01 1.46235E+00
 1.80000E+01 1.17764E+00
 1.90000E+01 9.07881E-01
 2.00000E+01 6.98571E-01
 2.10000E+01 5.45788E-01
 2.20000E+01 4.50292E-01
 2.30000E+01 3.86374E-01
 2.40000E+01 3.46104E-01
 2.50000E+01 3.18968E-01
 2.60000E+01 2.99489E-01
 2.70000E+01 2.84959E-01
 2.80000E+01 2.74505E-01
 2.90000E+01 2.63772E-01
 3.00000E+01 2.54963E-01
