# n + 208Pb: Gamma-ray intensity - 208Pb: Level 25 --> Level  2 - gamma energy    1.283035
# E-initial  =   4.480746 E-final=   3.197711
# E-threshold= 4.50248E+00
# # energies =    67
#    E           xs
 1.00000E-11 0.00000E+00
 2.53000E-08 0.00000E+00
 2.00000E-07 0.00000E+00
 1.00000E-06 0.00000E+00
 1.00000E-03 0.00000E+00
 2.00000E-03 0.00000E+00
 5.00000E-03 0.00000E+00
 1.00000E-02 0.00000E+00
 2.00000E-02 0.00000E+00
 5.00000E-02 0.00000E+00
 1.00000E-01 0.00000E+00
 2.00000E-01 0.00000E+00
 3.00000E-01 0.00000E+00
 4.00000E-01 0.00000E+00
 5.00000E-01 0.00000E+00
 7.50000E-01 0.00000E+00
 1.00000E+00 0.00000E+00
 1.20000E+00 0.00000E+00
 1.40000E+00 0.00000E+00
 1.60000E+00 0.00000E+00
 1.80000E+00 0.00000E+00
 2.00000E+00 0.00000E+00
 2.20000E+00 0.00000E+00
 2.40000E+00 0.00000E+00
 2.60000E+00 0.00000E+00
 2.80000E+00 0.00000E+00
 3.00000E+00 0.00000E+00
 3.20000E+00 0.00000E+00
 3.40000E+00 0.00000E+00
 3.60000E+00 0.00000E+00
 3.80000E+00 0.00000E+00
 4.00000E+00 0.00000E+00
 4.20000E+00 0.00000E+00
 4.40000E+00 0.00000E+00
 4.60000E+00 7.39071E+00
 4.80000E+00 1.47357E+01
 5.00000E+00 2.00516E+01
 5.50000E+00 2.47709E+01
 6.00000E+00 2.56194E+01
 6.50000E+00 2.68653E+01
 7.00000E+00 2.83543E+01
 7.50000E+00 3.01779E+01
 8.00000E+00 3.19944E+01
 8.50000E+00 3.23488E+01
 9.00000E+00 2.98262E+01
 9.50000E+00 2.52983E+01
 1.00000E+01 2.00102E+01
 1.10000E+01 1.11728E+01
 1.20000E+01 6.22400E+00
 1.30000E+01 4.01850E+00
 1.40000E+01 3.06192E+00
 1.50000E+01 2.64111E+00
 1.60000E+01 2.41261E+00
 1.70000E+01 2.28666E+00
 1.80000E+01 2.12882E+00
 1.90000E+01 1.99104E+00
 2.00000E+01 1.89968E+00
 2.10000E+01 1.80589E+00
 2.20000E+01 1.70460E+00
 2.30000E+01 1.63016E+00
 2.40000E+01 1.53961E+00
 2.50000E+01 1.44054E+00
 2.60000E+01 1.36220E+00
 2.70000E+01 1.28068E+00
 2.80000E+01 1.21303E+00
 2.90000E+01 1.16414E+00
 3.00000E+01 1.11685E+00
