# n +  28Si   : (n,a)             Total
# Q-value    =-2.73228E+00
# E-threshold= 2.83079E+00
# # energies = 50
#    E         xs       gamma xs  xs/res.prod.xs
 1.000E-01 0.00000E+00 0.00000E+00 0.00000E+00
 2.000E-01 0.00000E+00 0.00000E+00 0.00000E+00
 4.000E-01 0.00000E+00 0.00000E+00 0.00000E+00
 6.000E-01 0.00000E+00 0.00000E+00 0.00000E+00
 8.000E-01 0.00000E+00 0.00000E+00 0.00000E+00
 1.000E+00 0.00000E+00 0.00000E+00 0.00000E+00
 1.200E+00 0.00000E+00 0.00000E+00 0.00000E+00
 1.400E+00 0.00000E+00 0.00000E+00 0.00000E+00
 1.600E+00 0.00000E+00 0.00000E+00 0.00000E+00
 1.800E+00 0.00000E+00 0.00000E+00 0.00000E+00
 2.000E+00 0.00000E+00 0.00000E+00 0.00000E+00
 2.200E+00 0.00000E+00 0.00000E+00 0.00000E+00
 2.400E+00 0.00000E+00 0.00000E+00 0.00000E+00
 2.600E+00 0.00000E+00 0.00000E+00 0.00000E+00
 2.800E+00 0.00000E+00 0.00000E+00 0.00000E+00
 3.000E+00 0.00000E+00 0.00000E+00 0.00000E+00
 3.200E+00 0.00000E+00 0.00000E+00 0.00000E+00
 3.400E+00 0.00000E+00 0.00000E+00 0.00000E+00
 3.600E+00 0.00000E+00 0.00000E+00 0.00000E+00
 3.800E+00 0.00000E+00 0.00000E+00 0.00000E+00
 4.000E+00 0.00000E+00 0.00000E+00 0.00000E+00
 4.200E+00 1.43550E-04 0.00000E+00 0.00000E+00
 4.400E+00 1.51968E-03 0.00000E+00 1.00000E+00
 4.600E+00 1.01824E-02 0.00000E+00 1.00000E+00
 4.800E+00 4.84739E-02 5.58680E-05 1.00000E+00
 5.000E+00 1.80776E-01 5.89562E-04 1.00000E+00
 5.200E+00 5.41060E-01 3.88239E-03 1.00000E+00
 5.400E+00 1.37470E+00 1.83225E-02 1.00000E+00
 5.600E+00 3.10989E+00 7.26463E-02 1.00000E+00
 5.800E+00 6.33109E+00 2.29617E-01 1.00000E+00
 6.000E+00 1.17284E+01 6.25049E-01 1.00000E+00
 6.200E+00 1.99626E+01 1.49373E+00 1.00000E+00
 6.400E+00 3.14852E+01 3.18897E+00 1.00000E+00
 6.600E+00 4.52872E+01 6.10235E+00 1.00000E+00
 6.800E+00 6.11863E+01 1.06529E+01 1.00000E+00
 7.000E+00 7.90587E+01 1.71258E+01 1.00000E+00
 7.200E+00 9.57583E+01 2.54000E+01 1.00000E+00
 7.400E+00 1.09271E+02 3.48222E+01 1.00000E+00
 7.600E+00 1.23746E+02 4.61590E+01 9.99999E-01
 7.800E+00 1.34760E+02 5.74255E+01 9.99999E-01
 8.000E+00 1.46017E+02 6.98663E+01 9.99999E-01
 8.500E+00 1.69530E+02 1.04661E+02 9.99998E-01
 9.000E+00 1.83821E+02 1.40443E+02 9.99996E-01
 9.500E+00 1.90709E+02 1.74768E+02 9.99993E-01
 1.000E+01 1.94515E+02 2.07710E+02 9.99989E-01
 1.200E+01 1.86852E+02 2.81073E+02 9.99952E-01
 1.400E+01 1.71504E+02 2.93986E+02 9.99879E-01
 1.600E+01 1.29841E+02 2.40674E+02 9.99737E-01
 1.800E+01 7.57362E+01 1.47009E+02 9.99392E-01
 2.000E+01 4.22895E+01 8.42179E+01 9.98735E-01
