# n +  28Si   : (n,a)             Total
# Q-value    =-2.73244E+00
# E-threshold= 2.83095E+00
# # energies = 50
#    E         xs       gamma xs  xs/res.prod.xs
 1.000E-01 0.00000E+00 0.00000E+00 0.00000E+00
 2.000E-01 0.00000E+00 0.00000E+00 0.00000E+00
 4.000E-01 0.00000E+00 0.00000E+00 0.00000E+00
 6.000E-01 0.00000E+00 0.00000E+00 0.00000E+00
 8.000E-01 0.00000E+00 0.00000E+00 0.00000E+00
 1.000E+00 0.00000E+00 0.00000E+00 0.00000E+00
 1.200E+00 0.00000E+00 0.00000E+00 0.00000E+00
 1.400E+00 0.00000E+00 0.00000E+00 0.00000E+00
 1.600E+00 0.00000E+00 0.00000E+00 0.00000E+00
 1.800E+00 0.00000E+00 0.00000E+00 0.00000E+00
 2.000E+00 0.00000E+00 0.00000E+00 0.00000E+00
 2.200E+00 0.00000E+00 0.00000E+00 0.00000E+00
 2.400E+00 0.00000E+00 0.00000E+00 0.00000E+00
 2.600E+00 0.00000E+00 0.00000E+00 0.00000E+00
 2.800E+00 0.00000E+00 0.00000E+00 0.00000E+00
 3.000E+00 0.00000E+00 0.00000E+00 0.00000E+00
 3.200E+00 0.00000E+00 0.00000E+00 0.00000E+00
 3.400E+00 0.00000E+00 0.00000E+00 0.00000E+00
 3.600E+00 0.00000E+00 0.00000E+00 0.00000E+00
 3.800E+00 0.00000E+00 0.00000E+00 0.00000E+00
 4.000E+00 0.00000E+00 0.00000E+00 0.00000E+00
 4.200E+00 1.39668E-04 0.00000E+00 0.00000E+00
 4.400E+00 1.47900E-03 0.00000E+00 1.00000E+00
 4.600E+00 9.91128E-03 0.00000E+00 1.00000E+00
 4.800E+00 4.71840E-02 5.42741E-05 1.00000E+00
 5.000E+00 1.75936E-01 5.72904E-04 1.00000E+00
 5.200E+00 5.26406E-01 3.77458E-03 1.00000E+00
 5.400E+00 1.33704E+00 1.78270E-02 1.00000E+00
 5.600E+00 3.02376E+00 7.07129E-02 1.00000E+00
 5.800E+00 6.15386E+00 2.23671E-01 1.00000E+00
 6.000E+00 1.13966E+01 6.09439E-01 1.00000E+00
 6.200E+00 1.93930E+01 1.45766E+00 1.00000E+00
 6.400E+00 3.05786E+01 3.11429E+00 1.00000E+00
 6.600E+00 4.39719E+01 5.96361E+00 1.00000E+00
 6.800E+00 5.93953E+01 1.04175E+01 1.00000E+00
 7.000E+00 7.67281E+01 1.67578E+01 1.00000E+00
 7.200E+00 9.29176E+01 2.48674E+01 1.00000E+00
 7.400E+00 1.06005E+02 3.41026E+01 1.00000E+00
 7.600E+00 1.20027E+02 4.52157E+01 9.99999E-01
 7.800E+00 1.30691E+02 5.62559E+01 9.99999E-01
 8.000E+00 1.41593E+02 6.84358E+01 9.99999E-01
 8.500E+00 1.64373E+02 1.02415E+02 9.99998E-01
 9.000E+00 1.78024E+02 1.37048E+02 9.99996E-01
 9.500E+00 1.83862E+02 1.69515E+02 9.99993E-01
 1.000E+01 1.85744E+02 1.99196E+02 9.99989E-01
 1.200E+01 1.78512E+02 2.68749E+02 9.99952E-01
 1.400E+01 1.63108E+02 2.79468E+02 9.99880E-01
 1.600E+01 1.22398E+02 2.26129E+02 9.99738E-01
 1.800E+01 7.03093E+01 1.35109E+02 9.99388E-01
 2.000E+01 3.98262E+01 7.82296E+01 9.98750E-01
