# n +  28Si   : (n,a)             Total
# Q-value    =-2.73244E+00
# E-threshold= 2.83095E+00
# # energies = 50
#    E         xs       gamma xs  xs/res.prod.xs
 1.000E-01 0.00000E+00 0.00000E+00 0.00000E+00
 2.000E-01 0.00000E+00 0.00000E+00 0.00000E+00
 4.000E-01 0.00000E+00 0.00000E+00 0.00000E+00
 6.000E-01 0.00000E+00 0.00000E+00 0.00000E+00
 8.000E-01 0.00000E+00 0.00000E+00 0.00000E+00
 1.000E+00 0.00000E+00 0.00000E+00 0.00000E+00
 1.200E+00 0.00000E+00 0.00000E+00 0.00000E+00
 1.400E+00 0.00000E+00 0.00000E+00 0.00000E+00
 1.600E+00 0.00000E+00 0.00000E+00 0.00000E+00
 1.800E+00 0.00000E+00 0.00000E+00 0.00000E+00
 2.000E+00 0.00000E+00 0.00000E+00 0.00000E+00
 2.200E+00 0.00000E+00 0.00000E+00 0.00000E+00
 2.400E+00 0.00000E+00 0.00000E+00 0.00000E+00
 2.600E+00 0.00000E+00 0.00000E+00 0.00000E+00
 2.800E+00 0.00000E+00 0.00000E+00 0.00000E+00
 3.000E+00 0.00000E+00 0.00000E+00 0.00000E+00
 3.200E+00 0.00000E+00 0.00000E+00 0.00000E+00
 3.400E+00 0.00000E+00 0.00000E+00 0.00000E+00
 3.600E+00 0.00000E+00 0.00000E+00 0.00000E+00
 3.800E+00 0.00000E+00 0.00000E+00 0.00000E+00
 4.000E+00 0.00000E+00 0.00000E+00 0.00000E+00
 4.200E+00 1.42839E-04 0.00000E+00 0.00000E+00
 4.400E+00 1.51290E-03 0.00000E+00 1.00000E+00
 4.600E+00 1.01407E-02 0.00000E+00 1.00000E+00
 4.800E+00 4.82880E-02 5.55440E-05 1.00000E+00
 5.000E+00 1.80123E-01 5.86538E-04 1.00000E+00
 5.200E+00 5.39160E-01 3.86603E-03 1.00000E+00
 5.400E+00 1.36998E+00 1.82662E-02 1.00000E+00
 5.600E+00 3.09941E+00 7.24822E-02 1.00000E+00
 5.800E+00 6.31007E+00 2.29349E-01 1.00000E+00
 6.000E+00 1.16899E+01 6.25118E-01 1.00000E+00
 6.200E+00 1.98983E+01 1.49564E+00 1.00000E+00
 6.400E+00 3.13847E+01 3.19639E+00 1.00000E+00
 6.600E+00 4.51436E+01 6.12252E+00 1.00000E+00
 6.800E+00 6.09935E+01 1.06978E+01 1.00000E+00
 7.000E+00 7.88109E+01 1.72127E+01 1.00000E+00
 7.200E+00 9.54592E+01 2.55476E+01 1.00000E+00
 7.400E+00 1.08930E+02 3.50435E+01 1.00000E+00
 7.600E+00 1.23361E+02 4.64716E+01 9.99999E-01
 7.800E+00 1.34341E+02 5.78269E+01 9.99999E-01
 8.000E+00 1.45563E+02 7.03548E+01 9.99999E-01
 8.500E+00 1.69007E+02 1.05302E+02 9.99998E-01
 9.000E+00 1.83043E+02 1.40912E+02 9.99996E-01
 9.500E+00 1.89028E+02 1.74278E+02 9.99993E-01
 1.000E+01 1.90931E+02 2.04753E+02 9.99989E-01
 1.200E+01 1.83332E+02 2.75957E+02 9.99952E-01
 1.400E+01 1.67224E+02 2.86452E+02 9.99880E-01
 1.600E+01 1.25202E+02 2.31263E+02 9.99737E-01
 1.800E+01 7.16803E+01 1.37718E+02 9.99383E-01
 2.000E+01 4.03981E+01 7.93395E+01 9.98734E-01
