# n +  28Si   : (n,p)             Total
# Q-value    =-3.93888E+00
# E-threshold= 4.08089E+00
# # energies = 50
#    E         xs       gamma xs  xs/res.prod.xs
 1.000E-01 0.00000E+00 0.00000E+00 0.00000E+00
 2.000E-01 0.00000E+00 0.00000E+00 0.00000E+00
 4.000E-01 0.00000E+00 0.00000E+00 0.00000E+00
 6.000E-01 0.00000E+00 0.00000E+00 0.00000E+00
 8.000E-01 0.00000E+00 0.00000E+00 0.00000E+00
 1.000E+00 0.00000E+00 0.00000E+00 0.00000E+00
 1.200E+00 0.00000E+00 0.00000E+00 0.00000E+00
 1.400E+00 0.00000E+00 0.00000E+00 0.00000E+00
 1.600E+00 0.00000E+00 0.00000E+00 0.00000E+00
 1.800E+00 0.00000E+00 0.00000E+00 0.00000E+00
 2.000E+00 0.00000E+00 0.00000E+00 0.00000E+00
 2.200E+00 0.00000E+00 0.00000E+00 0.00000E+00
 2.400E+00 0.00000E+00 0.00000E+00 0.00000E+00
 2.600E+00 0.00000E+00 0.00000E+00 0.00000E+00
 2.800E+00 0.00000E+00 0.00000E+00 0.00000E+00
 3.000E+00 0.00000E+00 0.00000E+00 0.00000E+00
 3.200E+00 0.00000E+00 0.00000E+00 0.00000E+00
 3.400E+00 0.00000E+00 0.00000E+00 0.00000E+00
 3.600E+00 0.00000E+00 0.00000E+00 0.00000E+00
 3.800E+00 0.00000E+00 0.00000E+00 0.00000E+00
 4.000E+00 0.00000E+00 0.00000E+00 0.00000E+00
 4.200E+00 0.00000E+00 0.00000E+00 0.00000E+00
 4.400E+00 1.36346E-04 0.00000E+00 0.00000E+00
 4.600E+00 2.27139E-02 9.51843E-03 1.00000E+00
 4.800E+00 3.37779E-01 1.52232E-01 1.00000E+00
 5.000E+00 1.76425E+00 8.57177E-01 1.00000E+00
 5.200E+00 5.75675E+00 2.90642E+00 1.00000E+00
 5.400E+00 1.37687E+01 7.05167E+00 1.00000E+00
 5.600E+00 2.70581E+01 1.39683E+01 1.00000E+00
 5.800E+00 4.60535E+01 2.39878E+01 1.00000E+00
 6.000E+00 7.01160E+01 3.71412E+01 1.00000E+00
 6.200E+00 9.76953E+01 5.33305E+01 1.00000E+00
 6.400E+00 1.26870E+02 7.25569E+01 1.00000E+00
 6.600E+00 1.52357E+02 9.31765E+01 9.99999E-01
 6.800E+00 1.71975E+02 1.14464E+02 9.99999E-01
 7.000E+00 1.91526E+02 1.39440E+02 9.99999E-01
 7.200E+00 2.06913E+02 1.64924E+02 9.99998E-01
 7.400E+00 2.17039E+02 1.89416E+02 9.99997E-01
 7.600E+00 2.29860E+02 2.17670E+02 9.99996E-01
 7.800E+00 2.37417E+02 2.41105E+02 9.99995E-01
 8.000E+00 2.43007E+02 2.61938E+02 9.99993E-01
 8.500E+00 2.60238E+02 3.16827E+02 9.99987E-01
 9.000E+00 2.75035E+02 3.67030E+02 9.99977E-01
 9.500E+00 2.88238E+02 4.12508E+02 9.99966E-01
 1.000E+01 2.97600E+02 4.50177E+02 9.99951E-01
 1.200E+01 3.14847E+02 5.64113E+02 9.99849E-01
 1.400E+01 2.97342E+02 6.02647E+02 9.99660E-01
 1.600E+01 1.91146E+02 4.05232E+02 9.99124E-01
 1.800E+01 1.03832E+02 2.23803E+02 9.97743E-01
 2.000E+01 5.89523E+01 1.27543E+02 9.95063E-01
