# n +  28Si   : (n,p)             Total
# Q-value    =-3.93858E+00
# E-threshold= 4.08058E+00
# # energies = 50
#    E         xs       gamma xs  xs/res.prod.xs
 1.000E-01 0.00000E+00 0.00000E+00 0.00000E+00
 2.000E-01 0.00000E+00 0.00000E+00 0.00000E+00
 4.000E-01 0.00000E+00 0.00000E+00 0.00000E+00
 6.000E-01 0.00000E+00 0.00000E+00 0.00000E+00
 8.000E-01 0.00000E+00 0.00000E+00 0.00000E+00
 1.000E+00 0.00000E+00 0.00000E+00 0.00000E+00
 1.200E+00 0.00000E+00 0.00000E+00 0.00000E+00
 1.400E+00 0.00000E+00 0.00000E+00 0.00000E+00
 1.600E+00 0.00000E+00 0.00000E+00 0.00000E+00
 1.800E+00 0.00000E+00 0.00000E+00 0.00000E+00
 2.000E+00 0.00000E+00 0.00000E+00 0.00000E+00
 2.200E+00 0.00000E+00 0.00000E+00 0.00000E+00
 2.400E+00 0.00000E+00 0.00000E+00 0.00000E+00
 2.600E+00 0.00000E+00 0.00000E+00 0.00000E+00
 2.800E+00 0.00000E+00 0.00000E+00 0.00000E+00
 3.000E+00 0.00000E+00 0.00000E+00 0.00000E+00
 3.200E+00 0.00000E+00 0.00000E+00 0.00000E+00
 3.400E+00 0.00000E+00 0.00000E+00 0.00000E+00
 3.600E+00 0.00000E+00 0.00000E+00 0.00000E+00
 3.800E+00 0.00000E+00 0.00000E+00 0.00000E+00
 4.000E+00 0.00000E+00 0.00000E+00 0.00000E+00
 4.200E+00 0.00000E+00 0.00000E+00 0.00000E+00
 4.400E+00 1.43008E-04 0.00000E+00 0.00000E+00
 4.600E+00 2.34932E-02 9.82913E-03 1.00000E+00
 4.800E+00 3.48340E-01 1.57022E-01 1.00000E+00
 5.000E+00 1.81848E+00 8.83673E-01 1.00000E+00
 5.200E+00 5.93302E+00 2.99579E+00 1.00000E+00
 5.400E+00 1.41908E+01 7.26863E+00 1.00000E+00
 5.600E+00 2.78907E+01 1.43995E+01 1.00000E+00
 5.800E+00 4.74782E+01 2.47322E+01 1.00000E+00
 6.000E+00 7.22992E+01 3.83018E+01 1.00000E+00
 6.200E+00 1.00761E+02 5.50111E+01 1.00000E+00
 6.400E+00 1.30880E+02 7.48622E+01 1.00000E+00
 6.600E+00 1.57209E+02 9.61622E+01 1.00000E+00
 6.800E+00 1.77496E+02 1.18164E+02 1.00000E+00
 7.000E+00 1.97721E+02 1.43980E+02 9.99999E-01
 7.200E+00 2.13648E+02 1.70326E+02 9.99999E-01
 7.400E+00 2.24150E+02 1.95663E+02 9.99998E-01
 7.600E+00 2.37435E+02 2.24924E+02 9.99998E-01
 7.800E+00 2.45275E+02 2.49298E+02 9.99997E-01
 8.000E+00 2.51080E+02 2.71184E+02 9.99996E-01
 8.500E+00 2.68929E+02 3.30548E+02 9.99993E-01
 9.000E+00 2.85190E+02 3.89318E+02 9.99988E-01
 9.500E+00 3.01014E+02 4.47635E+02 9.99982E-01
 1.000E+01 3.16535E+02 5.06941E+02 9.99975E-01
 1.200E+01 3.43342E+02 6.66991E+02 9.99927E-01
 1.400E+01 3.33825E+02 7.34617E+02 9.99842E-01
 1.600E+01 2.14042E+02 4.90150E+02 9.99601E-01
 1.800E+01 1.15042E+02 2.67135E+02 9.99008E-01
 2.000E+01 6.47081E+01 1.50763E+02 9.97997E-01
