# n +  28Si   : (n,p)             Total
# Q-value    =-3.93888E+00
# E-threshold= 4.08089E+00
# # energies = 50
#    E         xs       gamma xs  xs/res.prod.xs
 1.000E-01 0.00000E+00 0.00000E+00 0.00000E+00
 2.000E-01 0.00000E+00 0.00000E+00 0.00000E+00
 4.000E-01 0.00000E+00 0.00000E+00 0.00000E+00
 6.000E-01 0.00000E+00 0.00000E+00 0.00000E+00
 8.000E-01 0.00000E+00 0.00000E+00 0.00000E+00
 1.000E+00 0.00000E+00 0.00000E+00 0.00000E+00
 1.200E+00 0.00000E+00 0.00000E+00 0.00000E+00
 1.400E+00 0.00000E+00 0.00000E+00 0.00000E+00
 1.600E+00 0.00000E+00 0.00000E+00 0.00000E+00
 1.800E+00 0.00000E+00 0.00000E+00 0.00000E+00
 2.000E+00 0.00000E+00 0.00000E+00 0.00000E+00
 2.200E+00 0.00000E+00 0.00000E+00 0.00000E+00
 2.400E+00 0.00000E+00 0.00000E+00 0.00000E+00
 2.600E+00 0.00000E+00 0.00000E+00 0.00000E+00
 2.800E+00 0.00000E+00 0.00000E+00 0.00000E+00
 3.000E+00 0.00000E+00 0.00000E+00 0.00000E+00
 3.200E+00 0.00000E+00 0.00000E+00 0.00000E+00
 3.400E+00 0.00000E+00 0.00000E+00 0.00000E+00
 3.600E+00 0.00000E+00 0.00000E+00 0.00000E+00
 3.800E+00 0.00000E+00 0.00000E+00 0.00000E+00
 4.000E+00 0.00000E+00 0.00000E+00 0.00000E+00
 4.200E+00 0.00000E+00 0.00000E+00 0.00000E+00
 4.400E+00 1.39799E-04 0.00000E+00 0.00000E+00
 4.600E+00 2.32914E-02 9.75758E-03 1.00000E+00
 4.800E+00 3.46372E-01 1.56095E-01 1.00000E+00
 5.000E+00 1.80967E+00 8.79295E-01 1.00000E+00
 5.200E+00 5.90743E+00 2.98271E+00 1.00000E+00
 5.400E+00 1.41346E+01 7.23962E+00 1.00000E+00
 5.600E+00 2.77872E+01 1.43458E+01 1.00000E+00
 5.800E+00 4.73104E+01 2.46441E+01 1.00000E+00
 6.000E+00 7.20532E+01 3.81698E+01 1.00000E+00
 6.200E+00 1.00426E+02 5.48248E+01 1.00000E+00
 6.400E+00 1.30457E+02 7.46129E+01 1.00000E+00
 6.600E+00 1.56707E+02 9.58434E+01 1.00000E+00
 6.800E+00 1.76933E+02 1.17772E+02 9.99999E-01
 7.000E+00 1.97096E+02 1.43504E+02 9.99999E-01
 7.200E+00 2.12973E+02 1.69763E+02 9.99999E-01
 7.400E+00 2.23441E+02 1.95018E+02 9.99998E-01
 7.600E+00 2.36683E+02 2.24184E+02 9.99998E-01
 7.800E+00 2.44497E+02 2.48481E+02 9.99997E-01
 8.000E+00 2.50283E+02 2.70298E+02 9.99996E-01
 8.500E+00 2.68075E+02 3.29472E+02 9.99993E-01
 9.000E+00 2.85128E+02 3.89851E+02 9.99988E-01
 9.500E+00 3.00080E+02 4.47441E+02 9.99982E-01
 1.000E+01 3.11480E+02 4.97921E+02 9.99975E-01
 1.200E+01 3.37022E+02 6.53988E+02 9.99927E-01
 1.400E+01 3.27221E+02 7.20420E+02 9.99843E-01
 1.600E+01 2.13879E+02 4.91373E+02 9.99613E-01
 1.800E+01 1.17773E+02 2.74659E+02 9.99060E-01
 2.000E+01 6.60021E+01 1.54196E+02 9.98090E-01
