# n +  28Si   : (n,p)             Total
# Q-value    =-3.93888E+00
# E-threshold= 4.08089E+00
# # energies = 50
#    E         xs       gamma xs  xs/res.prod.xs
 1.000E-01 0.00000E+00 0.00000E+00 0.00000E+00
 2.000E-01 0.00000E+00 0.00000E+00 0.00000E+00
 4.000E-01 0.00000E+00 0.00000E+00 0.00000E+00
 6.000E-01 0.00000E+00 0.00000E+00 0.00000E+00
 8.000E-01 0.00000E+00 0.00000E+00 0.00000E+00
 1.000E+00 0.00000E+00 0.00000E+00 0.00000E+00
 1.200E+00 0.00000E+00 0.00000E+00 0.00000E+00
 1.400E+00 0.00000E+00 0.00000E+00 0.00000E+00
 1.600E+00 0.00000E+00 0.00000E+00 0.00000E+00
 1.800E+00 0.00000E+00 0.00000E+00 0.00000E+00
 2.000E+00 0.00000E+00 0.00000E+00 0.00000E+00
 2.200E+00 0.00000E+00 0.00000E+00 0.00000E+00
 2.400E+00 0.00000E+00 0.00000E+00 0.00000E+00
 2.600E+00 0.00000E+00 0.00000E+00 0.00000E+00
 2.800E+00 0.00000E+00 0.00000E+00 0.00000E+00
 3.000E+00 0.00000E+00 0.00000E+00 0.00000E+00
 3.200E+00 0.00000E+00 0.00000E+00 0.00000E+00
 3.400E+00 0.00000E+00 0.00000E+00 0.00000E+00
 3.600E+00 0.00000E+00 0.00000E+00 0.00000E+00
 3.800E+00 0.00000E+00 0.00000E+00 0.00000E+00
 4.000E+00 0.00000E+00 0.00000E+00 0.00000E+00
 4.200E+00 0.00000E+00 0.00000E+00 0.00000E+00
 4.400E+00 1.36667E-04 0.00000E+00 0.00000E+00
 4.600E+00 2.27643E-02 9.53678E-03 1.00000E+00
 4.800E+00 3.38453E-01 1.52526E-01 1.00000E+00
 5.000E+00 1.76760E+00 8.58855E-01 1.00000E+00
 5.200E+00 5.76768E+00 2.91215E+00 1.00000E+00
 5.400E+00 1.37947E+01 7.06555E+00 1.00000E+00
 5.600E+00 2.71089E+01 1.39956E+01 1.00000E+00
 5.800E+00 4.61392E+01 2.40340E+01 1.00000E+00
 6.000E+00 7.02458E+01 3.72124E+01 1.00000E+00
 6.200E+00 9.78762E+01 5.34326E+01 1.00000E+00
 6.400E+00 1.27106E+02 7.26965E+01 1.00000E+00
 6.600E+00 1.52639E+02 9.33558E+01 1.00000E+00
 6.800E+00 1.72297E+02 1.14686E+02 1.00000E+00
 7.000E+00 1.91887E+02 1.39711E+02 9.99999E-01
 7.200E+00 2.07303E+02 1.65243E+02 9.99999E-01
 7.400E+00 2.17443E+02 1.89782E+02 9.99998E-01
 7.600E+00 2.30287E+02 2.18126E+02 9.99998E-01
 7.800E+00 2.37855E+02 2.41730E+02 9.99997E-01
 8.000E+00 2.43457E+02 2.62925E+02 9.99996E-01
 8.500E+00 2.60724E+02 3.20438E+02 9.99993E-01
 9.000E+00 2.77309E+02 3.79161E+02 9.99988E-01
 9.500E+00 2.91879E+02 4.35213E+02 9.99982E-01
 1.000E+01 3.03010E+02 4.84381E+02 9.99975E-01
 1.200E+01 3.27935E+02 6.36355E+02 9.99927E-01
 1.400E+01 3.18375E+02 7.00946E+02 9.99843E-01
 1.600E+01 2.08072E+02 4.78031E+02 9.99613E-01
 1.800E+01 1.14603E+02 2.67268E+02 9.99060E-01
 2.000E+01 6.42644E+01 1.50135E+02 9.98092E-01
