# n +  28Si   : (n,n')            Total
# Q-value    = 0.00000E+00
# E-threshold= 1.84317E+00
# # energies =    50
#     E          xs       gamma xs  xs/res.prod.xs
 1.00000E-01 0.00000E+00 0.00000E+00 0.00000E+00
 2.00000E-01 0.00000E+00 0.00000E+00 0.00000E+00
 4.00000E-01 0.00000E+00 0.00000E+00 0.00000E+00
 6.00000E-01 0.00000E+00 0.00000E+00 0.00000E+00
 8.00000E-01 0.00000E+00 0.00000E+00 0.00000E+00
 1.00000E+00 0.00000E+00 0.00000E+00 0.00000E+00
 1.20000E+00 0.00000E+00 0.00000E+00 0.00000E+00
 1.40000E+00 0.00000E+00 0.00000E+00 0.00000E+00
 1.60000E+00 0.00000E+00 0.00000E+00 0.00000E+00
 1.80000E+00 0.00000E+00 0.00000E+00 0.00000E+00
 2.00000E+00 2.75934E+02 2.75934E+02 9.99991E-01
 2.20000E+00 4.30718E+02 4.30718E+02 9.99994E-01
 2.40000E+00 5.04468E+02 5.04468E+02 9.99994E-01
 2.60000E+00 5.44417E+02 5.44417E+02 9.99993E-01
 2.80000E+00 5.69237E+02 5.69237E+02 9.99991E-01
 3.00000E+00 5.86805E+02 5.86805E+02 9.99989E-01
 3.20000E+00 6.00647E+02 6.00647E+02 9.99987E-01
 3.40000E+00 6.12414E+02 6.12414E+02 9.99983E-01
 3.60000E+00 6.22906E+02 6.22906E+02 9.99980E-01
 3.80000E+00 6.32505E+02 6.32505E+02 9.99975E-01
 4.00000E+00 6.41385E+02 6.41385E+02 9.99970E-01
 4.20000E+00 6.49624E+02 6.49624E+02 9.99964E-01
 4.40000E+00 6.57230E+02 6.57230E+02 9.99955E-01
 4.60000E+00 6.64187E+02 6.64187E+02 9.99947E-01
 4.80000E+00 6.72848E+02 6.79165E+02 9.99938E-01
 5.00000E+00 7.00330E+02 7.61401E+02 9.99934E-01
 5.20000E+00 7.20901E+02 8.22929E+02 9.99928E-01
 5.40000E+00 7.41374E+02 8.88535E+02 9.99921E-01
 5.60000E+00 7.48882E+02 9.23604E+02 9.99910E-01
 5.80000E+00 7.45529E+02 9.35518E+02 9.99899E-01
 6.00000E+00 7.33703E+02 9.31476E+02 9.99885E-01
 6.20000E+00 7.15362E+02 9.16237E+02 9.99867E-01
 6.40000E+00 6.92282E+02 8.93236E+02 9.99847E-01
 6.60000E+00 6.76091E+02 8.95638E+02 9.99832E-01
 6.80000E+00 6.65176E+02 9.13987E+02 9.99820E-01
 7.00000E+00 6.49133E+02 9.15521E+02 9.99803E-01
 7.20000E+00 6.39671E+02 9.22806E+02 9.99791E-01
 7.40000E+00 6.39809E+02 9.38613E+02 9.99790E-01
 7.60000E+00 6.29092E+02 9.32911E+02 9.99781E-01
 7.80000E+00 6.26714E+02 9.33159E+02 9.99777E-01
 8.00000E+00 6.22415E+02 9.25888E+02 9.99768E-01
 8.50000E+00 6.01595E+02 9.13244E+02 9.99735E-01
 9.00000E+00 5.84604E+02 9.21809E+02 9.99706E-01
 9.50000E+00 5.71172E+02 9.34056E+02 9.99675E-01
 1.00000E+01 5.57382E+02 9.43680E+02 9.99631E-01
 1.20000E+01 5.33918E+02 1.01723E+03 9.99476E-01
 1.40000E+01 3.93382E+02 7.85970E+02 9.99084E-01
 1.60000E+01 2.47317E+02 4.87873E+02 9.98291E-01
 1.80000E+01 1.67625E+02 3.20604E+02 9.97267E-01
 2.00000E+01 1.27298E+02 2.34823E+02 9.96227E-01
