# n +  28Si   : (n,n')            Total
# Q-value    = 0.00000E+00
# E-threshold= 1.84317E+00
# # energies = 50
#    E         xs       gamma xs  xs/res.prod.xs
 1.000E-01 0.00000E+00 0.00000E+00 0.00000E+00
 2.000E-01 0.00000E+00 0.00000E+00 0.00000E+00
 4.000E-01 0.00000E+00 0.00000E+00 0.00000E+00
 6.000E-01 0.00000E+00 0.00000E+00 0.00000E+00
 8.000E-01 0.00000E+00 0.00000E+00 0.00000E+00
 1.000E+00 0.00000E+00 0.00000E+00 0.00000E+00
 1.200E+00 0.00000E+00 0.00000E+00 0.00000E+00
 1.400E+00 0.00000E+00 0.00000E+00 0.00000E+00
 1.600E+00 0.00000E+00 0.00000E+00 0.00000E+00
 1.800E+00 0.00000E+00 0.00000E+00 0.00000E+00
 2.000E+00 2.73429E+02 2.73429E+02 9.99992E-01
 2.200E+00 4.25768E+02 4.25768E+02 9.99995E-01
 2.400E+00 4.98300E+02 4.98300E+02 9.99995E-01
 2.600E+00 5.37745E+02 5.37745E+02 9.99994E-01
 2.800E+00 5.62420E+02 5.62420E+02 9.99993E-01
 3.000E+00 5.80013E+02 5.80013E+02 9.99991E-01
 3.200E+00 5.93948E+02 5.93948E+02 9.99989E-01
 3.400E+00 6.05830E+02 6.05830E+02 9.99986E-01
 3.600E+00 6.16436E+02 6.16436E+02 9.99983E-01
 3.800E+00 6.26138E+02 6.26138E+02 9.99979E-01
 4.000E+00 6.35107E+02 6.35107E+02 9.99974E-01
 4.200E+00 6.43422E+02 6.43422E+02 9.99970E-01
 4.400E+00 6.51092E+02 6.51092E+02 9.99962E-01
 4.600E+00 6.58104E+02 6.58104E+02 9.99955E-01
 4.800E+00 6.66836E+02 6.73221E+02 9.99948E-01
 5.000E+00 6.94561E+02 7.56217E+02 9.99945E-01
 5.200E+00 7.15307E+02 8.18297E+02 9.99941E-01
 5.400E+00 7.35967E+02 8.84537E+02 9.99935E-01
 5.600E+00 7.43529E+02 9.19936E+02 9.99927E-01
 5.800E+00 7.40105E+02 9.31933E+02 9.99918E-01
 6.000E+00 7.28089E+02 9.27773E+02 9.99907E-01
 6.200E+00 7.09426E+02 9.12223E+02 9.99893E-01
 6.400E+00 6.85879E+02 8.88702E+02 9.99878E-01
 6.600E+00 6.69182E+02 8.90672E+02 9.99867E-01
 6.800E+00 6.57710E+02 9.08624E+02 9.99857E-01
 7.000E+00 6.40973E+02 9.09417E+02 9.99844E-01
 7.200E+00 6.30898E+02 9.16004E+02 9.99837E-01
 7.400E+00 6.30538E+02 9.31210E+02 9.99836E-01
 7.600E+00 6.19274E+02 9.24753E+02 9.99829E-01
 7.800E+00 6.16543E+02 9.24434E+02 9.99827E-01
 8.000E+00 6.11929E+02 9.16597E+02 9.99821E-01
 8.500E+00 5.90644E+02 9.03151E+02 9.99798E-01
 9.000E+00 5.73491E+02 9.11354E+02 9.99777E-01
 9.500E+00 5.59813E+02 9.22986E+02 9.99756E-01
 1.000E+01 5.45781E+02 9.32176E+02 9.99721E-01
 1.200E+01 5.25843E+02 1.01223E+03 9.99610E-01
 1.400E+01 3.87532E+02 7.85612E+02 9.99320E-01
 1.600E+01 2.41380E+02 4.87018E+02 9.98703E-01
 1.800E+01 1.60444E+02 3.16468E+02 9.97815E-01
 2.000E+01 1.19043E+02 2.27683E+02 9.96746E-01
