# n +  28Si   : (n,n')            Total
# Q-value    = 0.00000E+00
# E-threshold= 1.84317E+00
# # energies = 50
#    E         xs       gamma xs  xs/res.prod.xs
 1.000E-01 0.00000E+00 0.00000E+00 0.00000E+00
 2.000E-01 0.00000E+00 0.00000E+00 0.00000E+00
 4.000E-01 0.00000E+00 0.00000E+00 0.00000E+00
 6.000E-01 0.00000E+00 0.00000E+00 0.00000E+00
 8.000E-01 0.00000E+00 0.00000E+00 0.00000E+00
 1.000E+00 0.00000E+00 0.00000E+00 0.00000E+00
 1.200E+00 0.00000E+00 0.00000E+00 0.00000E+00
 1.400E+00 0.00000E+00 0.00000E+00 0.00000E+00
 1.600E+00 0.00000E+00 0.00000E+00 0.00000E+00
 1.800E+00 0.00000E+00 0.00000E+00 0.00000E+00
 2.000E+00 2.79592E+02 2.79592E+02 9.99991E-01
 2.200E+00 4.38115E+02 4.38115E+02 9.99994E-01
 2.400E+00 5.13720E+02 5.13720E+02 9.99994E-01
 2.600E+00 5.54438E+02 5.54438E+02 9.99993E-01
 2.800E+00 5.79483E+02 5.79483E+02 9.99992E-01
 3.000E+00 5.97010E+02 5.97010E+02 9.99991E-01
 3.200E+00 6.10698E+02 6.10698E+02 9.99988E-01
 3.400E+00 6.22253E+02 6.22253E+02 9.99986E-01
 3.600E+00 6.32519E+02 6.32519E+02 9.99983E-01
 3.800E+00 6.41934E+02 6.41934E+02 9.99979E-01
 4.000E+00 6.50698E+02 6.50698E+02 9.99976E-01
 4.200E+00 6.58743E+02 6.58743E+02 9.99971E-01
 4.400E+00 6.66254E+02 6.66254E+02 9.99966E-01
 4.600E+00 6.73059E+02 6.73059E+02 9.99959E-01
 4.800E+00 6.81326E+02 6.87531E+02 9.99954E-01
 5.000E+00 7.07844E+02 7.67933E+02 9.99951E-01
 5.200E+00 7.26996E+02 8.27242E+02 9.99948E-01
 5.400E+00 7.45485E+02 8.89694E+02 9.99945E-01
 5.600E+00 7.50815E+02 9.21503E+02 9.99938E-01
 5.800E+00 7.45227E+02 9.30187E+02 9.99932E-01
 6.000E+00 7.31443E+02 9.23336E+02 9.99925E-01
 6.200E+00 7.11572E+02 9.05892E+02 9.99915E-01
 6.400E+00 6.87383E+02 8.81264E+02 9.99906E-01
 6.600E+00 6.70181E+02 8.81336E+02 9.99900E-01
 6.800E+00 6.58381E+02 8.97102E+02 9.99895E-01
 7.000E+00 6.41777E+02 8.96876E+02 9.99887E-01
 7.200E+00 6.31680E+02 9.02396E+02 9.99884E-01
 7.400E+00 6.31268E+02 9.16753E+02 9.99886E-01
 7.600E+00 6.20725E+02 9.10881E+02 9.99884E-01
 7.800E+00 6.18078E+02 9.10573E+02 9.99882E-01
 8.000E+00 6.13746E+02 9.03345E+02 9.99880E-01
 8.500E+00 5.93412E+02 8.90570E+02 9.99872E-01
 9.000E+00 5.68078E+02 8.83622E+02 9.99856E-01
 9.500E+00 5.53934E+02 8.94510E+02 9.99849E-01
 1.000E+01 5.45943E+02 9.17825E+02 9.99837E-01
 1.200E+01 5.20420E+02 9.97269E+02 9.99771E-01
 1.400E+01 4.11403E+02 8.24099E+02 9.99610E-01
 1.600E+01 2.80012E+02 5.52474E+02 9.99368E-01
 1.800E+01 2.05351E+02 3.94111E+02 9.99083E-01
 2.000E+01 1.64811E+02 3.07642E+02 9.98579E-01
