# n +  28Si   : (n,n')            Total
# Q-value    = 0.00000E+00
# E-threshold= 1.84317E+00
# # energies = 50
#    E         xs       gamma xs  xs/res.prod.xs
 1.000E-01 0.00000E+00 0.00000E+00 0.00000E+00
 2.000E-01 0.00000E+00 0.00000E+00 0.00000E+00
 4.000E-01 0.00000E+00 0.00000E+00 0.00000E+00
 6.000E-01 0.00000E+00 0.00000E+00 0.00000E+00
 8.000E-01 0.00000E+00 0.00000E+00 0.00000E+00
 1.000E+00 0.00000E+00 0.00000E+00 0.00000E+00
 1.200E+00 0.00000E+00 0.00000E+00 0.00000E+00
 1.400E+00 0.00000E+00 0.00000E+00 0.00000E+00
 1.600E+00 0.00000E+00 0.00000E+00 0.00000E+00
 1.800E+00 0.00000E+00 0.00000E+00 0.00000E+00
 2.000E+00 2.79589E+02 2.79589E+02 9.99993E-01
 2.200E+00 4.38115E+02 4.38115E+02 9.99995E-01
 2.400E+00 5.13722E+02 5.13722E+02 9.99995E-01
 2.600E+00 5.54442E+02 5.54442E+02 9.99994E-01
 2.800E+00 5.79487E+02 5.79487E+02 9.99993E-01
 3.000E+00 5.97015E+02 5.97015E+02 9.99992E-01
 3.200E+00 6.10703E+02 6.10703E+02 9.99990E-01
 3.400E+00 6.22259E+02 6.22259E+02 9.99988E-01
 3.600E+00 6.32525E+02 6.32525E+02 9.99986E-01
 3.800E+00 6.41941E+02 6.41941E+02 9.99983E-01
 4.000E+00 6.50706E+02 6.50706E+02 9.99980E-01
 4.200E+00 6.58752E+02 6.58752E+02 9.99976E-01
 4.400E+00 6.66265E+02 6.66265E+02 9.99972E-01
 4.600E+00 6.73075E+02 6.73075E+02 9.99967E-01
 4.800E+00 6.81357E+02 6.87563E+02 9.99963E-01
 5.000E+00 7.07923E+02 7.68020E+02 9.99961E-01
 5.200E+00 7.27199E+02 8.27474E+02 9.99958E-01
 5.400E+00 7.45961E+02 8.90258E+02 9.99956E-01
 5.600E+00 7.51828E+02 9.22728E+02 9.99951E-01
 5.800E+00 7.47169E+02 9.32582E+02 9.99946E-01
 6.000E+00 7.34834E+02 9.27586E+02 9.99941E-01
 6.200E+00 7.17002E+02 9.12798E+02 9.99933E-01
 6.400E+00 6.95436E+02 8.91641E+02 9.99926E-01
 6.600E+00 6.81338E+02 8.96290E+02 9.99921E-01
 6.800E+00 6.72929E+02 9.17305E+02 9.99918E-01
 7.000E+00 6.59821E+02 9.22574E+02 9.99911E-01
 7.200E+00 6.53131E+02 9.33639E+02 9.99909E-01
 7.400E+00 6.55841E+02 9.53080E+02 9.99911E-01
 7.600E+00 6.44426E+02 9.46260E+02 9.99910E-01
 7.800E+00 6.39763E+02 9.43093E+02 9.99909E-01
 8.000E+00 6.33796E+02 9.33428E+02 9.99908E-01
 8.500E+00 6.11534E+02 9.18639E+02 9.99903E-01
 9.000E+00 5.92593E+02 9.23874E+02 9.99896E-01
 9.500E+00 5.71175E+02 9.19779E+02 9.99883E-01
 1.000E+01 5.53079E+02 9.20690E+02 9.99872E-01
 1.200E+01 5.27878E+02 9.86699E+02 9.99815E-01
 1.400E+01 4.27247E+02 8.30298E+02 9.99669E-01
 1.600E+01 2.98452E+02 5.71600E+02 9.99436E-01
 1.800E+01 2.16776E+02 4.02997E+02 9.99137E-01
 2.000E+01 1.68751E+02 3.03045E+02 9.98637E-01
