# n +  28Si   : (n,n')            Total
# Q-value    = 0.00000E+00
# E-threshold= 1.84317E+00
# # energies = 50
#    E         xs       gamma xs  xs/res.prod.xs
 1.000E-01 0.00000E+00 0.00000E+00 0.00000E+00
 2.000E-01 0.00000E+00 0.00000E+00 0.00000E+00
 4.000E-01 0.00000E+00 0.00000E+00 0.00000E+00
 6.000E-01 0.00000E+00 0.00000E+00 0.00000E+00
 8.000E-01 0.00000E+00 0.00000E+00 0.00000E+00
 1.000E+00 0.00000E+00 0.00000E+00 0.00000E+00
 1.200E+00 0.00000E+00 0.00000E+00 0.00000E+00
 1.400E+00 0.00000E+00 0.00000E+00 0.00000E+00
 1.600E+00 0.00000E+00 0.00000E+00 0.00000E+00
 1.800E+00 0.00000E+00 0.00000E+00 0.00000E+00
 2.000E+00 2.79640E+02 2.79640E+02 9.99987E-01
 2.200E+00 4.38128E+02 4.38128E+02 9.99991E-01
 2.400E+00 5.13717E+02 5.13717E+02 9.99990E-01
 2.600E+00 5.54421E+02 5.54421E+02 9.99989E-01
 2.800E+00 5.79448E+02 5.79448E+02 9.99986E-01
 3.000E+00 5.96967E+02 5.96967E+02 9.99983E-01
 3.200E+00 6.10651E+02 6.10651E+02 9.99979E-01
 3.400E+00 6.22226E+02 6.22226E+02 9.99973E-01
 3.600E+00 6.32526E+02 6.32526E+02 9.99966E-01
 3.800E+00 6.41947E+02 6.41947E+02 9.99959E-01
 4.000E+00 6.50667E+02 6.50667E+02 9.99948E-01
 4.200E+00 6.58765E+02 6.58765E+02 9.99937E-01
 4.400E+00 6.66244E+02 6.66244E+02 9.99923E-01
 4.600E+00 6.73085E+02 6.73085E+02 9.99907E-01
 4.800E+00 6.81604E+02 6.87813E+02 9.99893E-01
 5.000E+00 7.08705E+02 7.68898E+02 9.99883E-01
 5.200E+00 7.28990E+02 8.29579E+02 9.99870E-01
 5.400E+00 7.49148E+02 8.94192E+02 9.99856E-01
 5.600E+00 7.56530E+02 9.28719E+02 9.99839E-01
 5.800E+00 7.53210E+02 9.40440E+02 9.99817E-01
 6.000E+00 7.41528E+02 9.36434E+02 9.99789E-01
 6.200E+00 7.23386E+02 9.21355E+02 9.99758E-01
 6.400E+00 7.00499E+02 8.98537E+02 9.99723E-01
 6.600E+00 6.84261E+02 9.00444E+02 9.99697E-01
 6.800E+00 6.73087E+02 9.17848E+02 9.99668E-01
 7.000E+00 6.56798E+02 9.18598E+02 9.99639E-01
 7.200E+00 6.46963E+02 9.24964E+02 9.99620E-01
 7.400E+00 6.46568E+02 9.39720E+02 9.99620E-01
 7.600E+00 6.35582E+02 9.33458E+02 9.99596E-01
 7.800E+00 6.32846E+02 9.33133E+02 9.99587E-01
 8.000E+00 6.28272E+02 9.25518E+02 9.99573E-01
 8.500E+00 6.07360E+02 9.12409E+02 9.99511E-01
 9.000E+00 5.86621E+02 9.14002E+02 9.99403E-01
 9.500E+00 5.72880E+02 9.26926E+02 9.99346E-01
 1.000E+01 5.62740E+02 9.47899E+02 9.99284E-01
 1.200E+01 5.34747E+02 1.02741E+03 9.98927E-01
 1.400E+01 4.27302E+02 8.62699E+02 9.98148E-01
 1.600E+01 2.91020E+02 5.80162E+02 9.96755E-01
 1.800E+01 2.11815E+02 4.11140E+02 9.95387E-01
 2.000E+01 1.69332E+02 3.19850E+02 9.94487E-01
