# n +  28Si   : (n,n')            Total
# Q-value    = 0.00000E+00
# E-threshold= 1.84317E+00
# # energies = 50
#    E         xs       gamma xs  xs/res.prod.xs
 1.000E-01 0.00000E+00 0.00000E+00 0.00000E+00
 2.000E-01 0.00000E+00 0.00000E+00 0.00000E+00
 4.000E-01 0.00000E+00 0.00000E+00 0.00000E+00
 6.000E-01 0.00000E+00 0.00000E+00 0.00000E+00
 8.000E-01 0.00000E+00 0.00000E+00 0.00000E+00
 1.000E+00 0.00000E+00 0.00000E+00 0.00000E+00
 1.200E+00 0.00000E+00 0.00000E+00 0.00000E+00
 1.400E+00 0.00000E+00 0.00000E+00 0.00000E+00
 1.600E+00 0.00000E+00 0.00000E+00 0.00000E+00
 1.800E+00 0.00000E+00 0.00000E+00 0.00000E+00
 2.000E+00 2.79507E+02 2.79507E+02 9.99992E-01
 2.200E+00 4.37777E+02 4.37777E+02 9.99995E-01
 2.400E+00 5.13263E+02 5.13263E+02 9.99995E-01
 2.600E+00 5.53930E+02 5.53930E+02 9.99994E-01
 2.800E+00 5.78956E+02 5.78956E+02 9.99993E-01
 3.000E+00 5.96492E+02 5.96492E+02 9.99991E-01
 3.200E+00 6.10200E+02 6.10200E+02 9.99989E-01
 3.400E+00 6.21804E+02 6.21804E+02 9.99987E-01
 3.600E+00 6.32135E+02 6.32135E+02 9.99983E-01
 3.800E+00 6.41588E+02 6.41588E+02 9.99980E-01
 4.000E+00 6.50341E+02 6.50341E+02 9.99975E-01
 4.200E+00 6.58473E+02 6.58473E+02 9.99970E-01
 4.400E+00 6.65988E+02 6.65988E+02 9.99964E-01
 4.600E+00 6.72867E+02 6.72867E+02 9.99957E-01
 4.800E+00 6.81423E+02 6.87646E+02 9.99951E-01
 5.000E+00 7.08563E+02 7.68818E+02 9.99948E-01
 5.200E+00 7.28886E+02 8.29577E+02 9.99943E-01
 5.400E+00 7.49082E+02 8.94278E+02 9.99937E-01
 5.600E+00 7.56489E+02 9.28862E+02 9.99930E-01
 5.800E+00 7.53179E+02 9.40614E+02 9.99922E-01
 6.000E+00 7.41492E+02 9.36616E+02 9.99910E-01
 6.200E+00 7.23331E+02 9.21526E+02 9.99898E-01
 6.400E+00 7.00413E+02 8.98678E+02 9.99884E-01
 6.600E+00 6.84143E+02 9.00588E+02 9.99874E-01
 6.800E+00 6.72937E+02 9.18001E+02 9.99863E-01
 7.000E+00 6.56607E+02 9.18735E+02 9.99852E-01
 7.200E+00 6.46737E+02 9.25084E+02 9.99846E-01
 7.400E+00 6.46312E+02 9.39821E+02 9.99846E-01
 7.600E+00 6.35288E+02 9.33517E+02 9.99837E-01
 7.800E+00 6.32530E+02 9.33164E+02 9.99835E-01
 8.000E+00 6.27936E+02 9.25513E+02 9.99830E-01
 8.500E+00 6.06970E+02 9.12342E+02 9.99808E-01
 9.000E+00 5.89395E+02 9.19177E+02 9.99782E-01
 9.500E+00 5.77692E+02 9.35610E+02 9.99763E-01
 1.000E+01 5.70042E+02 9.59739E+02 9.99744E-01
 1.200E+01 5.50457E+02 1.05244E+03 9.99644E-01
 1.400E+01 4.21051E+02 8.38977E+02 9.99406E-01
 1.600E+01 2.83800E+02 5.57314E+02 9.98958E-01
 1.800E+01 2.03972E+02 3.88607E+02 9.98372E-01
 2.000E+01 1.61704E+02 2.99044E+02 9.97747E-01
