# n +  28Si   : (n,n')            Total
# Q-value    = 0.00000E+00
# E-threshold= 1.84317E+00
# # energies = 50
#    E         xs       gamma xs  xs/res.prod.xs
 1.000E-01 0.00000E+00 0.00000E+00 0.00000E+00
 2.000E-01 0.00000E+00 0.00000E+00 0.00000E+00
 4.000E-01 0.00000E+00 0.00000E+00 0.00000E+00
 6.000E-01 0.00000E+00 0.00000E+00 0.00000E+00
 8.000E-01 0.00000E+00 0.00000E+00 0.00000E+00
 1.000E+00 0.00000E+00 0.00000E+00 0.00000E+00
 1.200E+00 0.00000E+00 0.00000E+00 0.00000E+00
 1.400E+00 0.00000E+00 0.00000E+00 0.00000E+00
 1.600E+00 0.00000E+00 0.00000E+00 0.00000E+00
 1.800E+00 0.00000E+00 0.00000E+00 0.00000E+00
 2.000E+00 2.74026E+02 2.74026E+02 9.99992E-01
 2.200E+00 4.26948E+02 4.26948E+02 9.99995E-01
 2.400E+00 4.99770E+02 4.99770E+02 9.99995E-01
 2.600E+00 5.39335E+02 5.39335E+02 9.99994E-01
 2.800E+00 5.64045E+02 5.64045E+02 9.99992E-01
 3.000E+00 5.81632E+02 5.81632E+02 9.99991E-01
 3.200E+00 5.95544E+02 5.95544E+02 9.99989E-01
 3.400E+00 6.07399E+02 6.07399E+02 9.99986E-01
 3.600E+00 6.17978E+02 6.17978E+02 9.99983E-01
 3.800E+00 6.27656E+02 6.27656E+02 9.99979E-01
 4.000E+00 6.36604E+02 6.36604E+02 9.99974E-01
 4.200E+00 6.44901E+02 6.44901E+02 9.99969E-01
 4.400E+00 6.52555E+02 6.52555E+02 9.99963E-01
 4.600E+00 6.59555E+02 6.59555E+02 9.99955E-01
 4.800E+00 6.68270E+02 6.74639E+02 9.99949E-01
 5.000E+00 6.95940E+02 7.57462E+02 9.99945E-01
 5.200E+00 7.16649E+02 8.19419E+02 9.99941E-01
 5.400E+00 7.37270E+02 8.85518E+02 9.99935E-01
 5.600E+00 7.44824E+02 9.20848E+02 9.99927E-01
 5.800E+00 7.41420E+02 9.32832E+02 9.99918E-01
 6.000E+00 7.29443E+02 9.28699E+02 9.99907E-01
 6.200E+00 7.10836E+02 9.13205E+02 9.99893E-01
 6.400E+00 6.87354E+02 8.89756E+02 9.99879E-01
 6.600E+00 6.70703E+02 8.91727E+02 9.99868E-01
 6.800E+00 6.59260E+02 9.09632E+02 9.99856E-01
 7.000E+00 6.42564E+02 9.10423E+02 9.99844E-01
 7.200E+00 6.32511E+02 9.16990E+02 9.99838E-01
 7.400E+00 6.32144E+02 9.32152E+02 9.99838E-01
 7.600E+00 6.20904E+02 9.25711E+02 9.99829E-01
 7.800E+00 6.18170E+02 9.25390E+02 9.99826E-01
 8.000E+00 6.13558E+02 9.17572E+02 9.99821E-01
 8.500E+00 5.92305E+02 9.04155E+02 9.99798E-01
 9.000E+00 5.74550E+02 9.11304E+02 9.99770E-01
 9.500E+00 5.62823E+02 9.28309E+02 9.99750E-01
 1.000E+01 5.55244E+02 9.53209E+02 9.99730E-01
 1.200E+01 5.36003E+02 1.04878E+03 9.99624E-01
 1.400E+01 4.04307E+02 8.31103E+02 9.99365E-01
 1.600E+01 2.64763E+02 5.43504E+02 9.98853E-01
 1.800E+01 1.84376E+02 3.71983E+02 9.98149E-01
 2.000E+01 1.42539E+02 2.81709E+02 9.97376E-01
