# n + Si28   : (n,n')            Total
# Q-value    = 0.00000E+00
# E-threshold= 1.84317E+00
# # energies =    50
#     E          xs       gamma xs  xs/res.prod.xs
 1.00000E-01 0.00000E+00 0.00000E+00 0.00000E+00
 2.00000E-01 0.00000E+00 0.00000E+00 0.00000E+00
 4.00000E-01 0.00000E+00 0.00000E+00 0.00000E+00
 6.00000E-01 0.00000E+00 0.00000E+00 0.00000E+00
 8.00000E-01 0.00000E+00 0.00000E+00 0.00000E+00
 1.00000E+00 0.00000E+00 0.00000E+00 0.00000E+00
 1.20000E+00 0.00000E+00 0.00000E+00 0.00000E+00
 1.40000E+00 0.00000E+00 0.00000E+00 0.00000E+00
 1.60000E+00 0.00000E+00 0.00000E+00 0.00000E+00
 1.80000E+00 0.00000E+00 0.00000E+00 0.00000E+00
 2.00000E+00 2.73524E+02 2.73524E+02 9.99990E-01
 2.20000E+00 4.25978E+02 4.25978E+02 9.99993E-01
 2.40000E+00 4.98567E+02 4.98567E+02 9.99993E-01
 2.60000E+00 5.38035E+02 5.38035E+02 9.99992E-01
 2.80000E+00 5.62716E+02 5.62716E+02 9.99991E-01
 3.00000E+00 5.80307E+02 5.80307E+02 9.99989E-01
 3.20000E+00 5.94236E+02 5.94236E+02 9.99987E-01
 3.40000E+00 6.06112E+02 6.06112E+02 9.99983E-01
 3.60000E+00 6.16711E+02 6.16711E+02 9.99980E-01
 3.80000E+00 6.26407E+02 6.26407E+02 9.99975E-01
 4.00000E+00 6.35371E+02 6.35371E+02 9.99970E-01
 4.20000E+00 6.43680E+02 6.43680E+02 9.99963E-01
 4.40000E+00 6.51344E+02 6.51344E+02 9.99956E-01
 4.60000E+00 6.58315E+02 6.58315E+02 9.99948E-01
 4.80000E+00 6.66821E+02 6.73196E+02 9.99941E-01
 5.00000E+00 6.93948E+02 7.55500E+02 9.99937E-01
 5.20000E+00 7.13552E+02 8.16211E+02 9.99932E-01
 5.40000E+00 7.32504E+02 8.80243E+02 9.99927E-01
 5.60000E+00 7.37953E+02 9.12843E+02 9.99918E-01
 5.80000E+00 7.32277E+02 9.21813E+02 9.99908E-01
 6.00000E+00 7.18184E+02 9.14825E+02 9.99897E-01
 6.20000E+00 6.97910E+02 8.97042E+02 9.99882E-01
 6.40000E+00 6.73294E+02 8.71998E+02 9.99865E-01
 6.60000E+00 6.56033E+02 8.72673E+02 9.99853E-01
 6.80000E+00 6.44423E+02 8.89631E+02 9.99843E-01
 7.00000E+00 6.27887E+02 8.90182E+02 9.99827E-01
 7.20000E+00 6.18125E+02 8.96772E+02 9.99819E-01
 7.40000E+00 6.18246E+02 9.12330E+02 9.99819E-01
 7.60000E+00 6.07840E+02 9.06911E+02 9.99812E-01
 7.80000E+00 6.05544E+02 9.07179E+02 9.99805E-01
 8.00000E+00 6.01449E+02 9.00197E+02 9.99798E-01
 8.50000E+00 5.81060E+02 8.87763E+02 9.99772E-01
 9.00000E+00 5.63456E+02 8.94147E+02 9.99730E-01
 9.50000E+00 5.50949E+02 9.17090E+02 9.99703E-01
 1.00000E+01 5.41161E+02 9.39685E+02 9.99667E-01
 1.20000E+01 5.23743E+02 1.03639E+03 9.99521E-01
 1.40000E+01 4.03470E+02 8.44427E+02 9.99213E-01
 1.60000E+01 2.67525E+02 5.61344E+02 9.98621E-01
 1.80000E+01 1.90225E+02 3.94620E+02 9.97821E-01
 2.00000E+01 1.49569E+02 3.05382E+02 9.96845E-01
