# n + Si28   : (n,n')            Total
# Q-value    = 0.00000E+00
# E-threshold= 1.84317E+00
# # energies =    50
#     E          xs       gamma xs  xs/res.prod.xs
 1.00000E-01 0.00000E+00 0.00000E+00 0.00000E+00
 2.00000E-01 0.00000E+00 0.00000E+00 0.00000E+00
 4.00000E-01 0.00000E+00 0.00000E+00 0.00000E+00
 6.00000E-01 0.00000E+00 0.00000E+00 0.00000E+00
 8.00000E-01 0.00000E+00 0.00000E+00 0.00000E+00
 1.00000E+00 0.00000E+00 0.00000E+00 0.00000E+00
 1.20000E+00 0.00000E+00 0.00000E+00 0.00000E+00
 1.40000E+00 0.00000E+00 0.00000E+00 0.00000E+00
 1.60000E+00 0.00000E+00 0.00000E+00 0.00000E+00
 1.80000E+00 0.00000E+00 0.00000E+00 0.00000E+00
 2.00000E+00 2.87903E+02 2.87903E+02 9.99990E-01
 2.20000E+00 4.46929E+02 4.46929E+02 9.99993E-01
 2.40000E+00 5.22050E+02 5.22050E+02 9.99993E-01
 2.60000E+00 5.63094E+02 5.63094E+02 9.99992E-01
 2.80000E+00 5.89323E+02 5.89323E+02 9.99991E-01
 3.00000E+00 6.08633E+02 6.08633E+02 9.99989E-01
 3.20000E+00 6.26393E+02 6.26393E+02 9.99986E-01
 3.40000E+00 6.40560E+02 6.40560E+02 9.99983E-01
 3.60000E+00 6.53328E+02 6.53328E+02 9.99979E-01
 3.80000E+00 6.65016E+02 6.65016E+02 9.99974E-01
 4.00000E+00 6.75753E+02 6.75753E+02 9.99969E-01
 4.20000E+00 6.85587E+02 6.85587E+02 9.99962E-01
 4.40000E+00 6.94533E+02 6.94533E+02 9.99955E-01
 4.60000E+00 7.02549E+02 7.02549E+02 9.99946E-01
 4.80000E+00 7.11860E+02 7.19100E+02 9.99938E-01
 5.00000E+00 7.42708E+02 8.11316E+02 9.99935E-01
 5.20000E+00 7.64466E+02 8.77373E+02 9.99929E-01
 5.40000E+00 7.86068E+02 9.48345E+02 9.99925E-01
 5.60000E+00 7.92669E+02 9.83963E+02 9.99916E-01
 5.80000E+00 7.87047E+02 9.93394E+02 9.99906E-01
 6.00000E+00 7.72334E+02 9.85575E+02 9.99894E-01
 6.20000E+00 7.50995E+02 9.66282E+02 9.99878E-01
 6.40000E+00 7.25022E+02 9.39361E+02 9.99862E-01
 6.60000E+00 7.07295E+02 9.40796E+02 9.99850E-01
 6.80000E+00 6.95966E+02 9.60838E+02 9.99840E-01
 7.00000E+00 6.78711E+02 9.61443E+02 9.99825E-01
 7.20000E+00 6.69533E+02 9.69706E+02 9.99817E-01
 7.40000E+00 6.73441E+02 9.90704E+02 9.99820E-01
 7.60000E+00 6.63819E+02 9.86021E+02 9.99814E-01
 7.80000E+00 6.61710E+02 9.85739E+02 9.99808E-01
 8.00000E+00 6.57481E+02 9.77497E+02 9.99801E-01
 8.50000E+00 6.34072E+02 9.61099E+02 9.99776E-01
 9.00000E+00 6.14709E+02 9.68446E+02 9.99736E-01
 9.50000E+00 6.01770E+02 9.95145E+02 9.99712E-01
 1.00000E+01 5.90719E+02 1.01784E+03 9.99680E-01
 1.20000E+01 5.67066E+02 1.10444E+03 9.99548E-01
 1.40000E+01 4.33269E+02 8.80790E+02 9.99265E-01
 1.60000E+01 2.94467E+02 5.92406E+02 9.98754E-01
 1.80000E+01 2.16245E+02 4.25909E+02 9.98100E-01
 2.00000E+01 1.74086E+02 3.34775E+02 9.97314E-01
